time,seconds_elapsed,z,y,x
1783080983569838800,0.1268388671875,0.00013315795513335615,-0.0011984215816482902,0.0006657897611148655
1783080983589688000,0.14668798828125,-0.0009321057004854083,-0.00013315795513335615,-0.0003994738799519837
1783080983609537000,0.166537109375,0.00013315795513335615,-0.00013315795513335615,-0.001464737462811172
1783080983629386200,0.18638623046875,0.00013315795513335615,-0.00013315795513335615,0.0006657897611148655
1783080983649235500,0.2062353515625,0.00013315795513335615,-0.00013315795513335615,-0.0003994738799519837
1783080983669084700,0.226084716796875,-0.0009321057004854083,-0.00013315795513335615,0.0006657897611148655
1783080983688933600,0.24593359375,0.00013315795513335615,-0.00013315795513335615,-0.0003994738799519837
1783080983708782800,0.265782958984375,0.00013315795513335615,0.0009321057004854083,0.0006657897611148655
1783080983728478000,0.28547802734375,-0.0009321057004854083,-0.00013315795513335615,-0.0003994738799519837
1783080983748327000,0.305326904296875,0.00013315795513335615,-0.0011984215816482902,-0.0003994738799519837
1783080983768329700,0.325329833984375,0.0011984215816482902,-0.00013315795513335615,0.0006657897611148655
1783080983788024800,0.34502490234375,0.0011984215816482902,-0.00013315795513335615,-0.0003994738799519837
1783080983807873800,0.364873779296875,0.00013315795513335615,-0.00013315795513335615,-0.0003994738799519837
1783080983827722800,0.38472265625,-0.0009321057004854083,-0.0011984215816482902,-0.0003994738799519837
1783080983847571700,0.40457177734375,-0.0009321057004854083,-0.00013315795513335615,-0.0003994738799519837
1783080983867574800,0.42457470703125,0.00013315795513335615,-0.00013315795513335615,0.0006657897611148655
1783080983887231500,0.4442314453125,0.00013315795513335615,-0.00013315795513335615,-0.0003994738799519837
1783080983907080400,0.46408056640625,0.0011984215816482902,-0.0011984215816482902,-0.0003994738799519837
1783080983926929400,0.483929443359375,0.0011984215816482902,-0.00013315795513335615,-0.0003994738799519837
1783080983946778400,0.5037783203125,0.00013315795513335615,0.0009321057004854083,-0.0003994738799519837
1783080983966820000,0.523820068359375,0.00013315795513335615,-0.00013315795513335615,-0.0003994738799519837
1783080983986669300,0.54366943359375,-0.0009321057004854083,-0.0011984215816482902,-0.0003994738799519837
1783080984006364400,0.563364501953125,0.00013315795513335615,-0.00013315795513335615,-0.0003994738799519837
1783080984026213400,0.58321337890625,0.00013315795513335615,0.0009321057004854083,-0.001464737462811172
1783080984046062300,0.603062255859375,0.00013315795513335615,-0.00013315795513335615,-0.0003994738799519837
1783080984066065700,0.623065673828125,0.00013315795513335615,-0.00013315795513335615,-0.0003994738799519837
1783080984085722000,0.64272216796875,0.00013315795513335615,0.0009321057004854083,0.0006657897611148655
1783080984105571000,0.662571044921875,0.00013315795513335615,0.0009321057004854083,0.0006657897611148655
1783080984125612800,0.68261279296875,0.00013315795513335615,-0.00013315795513335615,-0.0003994738799519837
1783080984145269500,0.70226953125,0.00013315795513335615,0.0009321057004854083,-0.0003994738799519837
1783080984165311000,0.72231103515625,-0.0009321057004854083,-0.00013315795513335615,-0.0003994738799519837
1783080984184967700,0.7419677734375,0.00013315795513335615,-0.00013315795513335615,-0.0003994738799519837
1783080984204816600,0.761816650390625,0.00013315795513335615,0.0009321057004854083,0.0006657897611148655
1783080984224858000,0.781858154296875,0.00013315795513335615,-0.00013315795513335615,-0.0003994738799519837
1783080984244553200,0.80155322265625,-0.0009321057004854083,-0.00013315795513335615,0.0006657897611148655
1783080984264556300,0.821556396484375,-0.0009321057004854083,-0.00013315795513335615,-0.0003994738799519837
1783080984284213200,0.841213134765625,-0.0009321057004854083,-0.00013315795513335615,-0.0003994738799519837
1783080984304100600,0.8611005859375,0.00013315795513335615,0.0019973693415522575,-0.0003994738799519837
1783080984323911200,0.8809111328125,0.00013315795513335615,0.0009321057004854083,-0.0003994738799519837
1783080984343760100,0.900760009765625,0.00013315795513335615,0.0009321057004854083,-0.0003994738799519837
1783080984363686000,0.920685791015625,0.00013315795513335615,0.0009321057004854083,-0.0003994738799519837
1783080984383458000,0.9404580078125,0.00013315795513335615,0.0009321057004854083,-0.0003994738799519837
1783080984403499800,0.960499755859375,0.00013315795513335615,-0.00013315795513335615,-0.001464737462811172
1783080984423156500,0.980156494140625,0.00013315795513335615,-0.0011984215816482902,-0.0003994738799519837
1783080984443005400,1.00000537109375,0.00013315795513335615,-0.00013315795513335615,-0.0003994738799519837
1783080984462854400,1.0198544921875,0.00013315795513335615,-0.00013315795513335615,0.0006657897611148655
1783080984482703400,1.039703369140625,-0.0009321057004854083,-0.00013315795513335615,0.0006657897611148655
1783080984502732800,1.05973291015625,0.00013315795513335615,-0.00013315795513335615,-0.0003994738799519837
1783080984522584000,1.079583984375,0.00013315795513335615,-0.0011984215816482902,-0.0003994738799519837
1783080984542434800,1.099434814453125,0.00013315795513335615,-0.00013315795513335615,-0.0003994738799519837
1783080984562285000,1.11928515625,0.00013315795513335615,0.0009321057004854083,-0.0003994738799519837
1783080984582135300,1.13913525390625,0.00013315795513335615,0.0009321057004854083,-0.0003994738799519837
1783080984601985300,1.1589853515625,0.00013315795513335615,-0.00013315795513335615,-0.0003994738799519837
1783080984621835000,1.1788349609375,-0.0009321057004854083,-0.00013315795513335615,0.0006657897611148655
1783080984641684700,1.198684814453125,0.00013315795513335615,-0.00013315795513335615,0.0006657897611148655
1783080984661534200,1.2185341796875,-0.0009321057004854083,-0.00013315795513335615,-0.0003994738799519837
1783080984681383700,1.2383837890625,0.00013315795513335615,0.0009321057004854083,-0.001464737462811172
1783080984701233000,1.25823291015625,0.00013315795513335615,-0.00013315795513335615,0.0006657897611148655
1783080984721082400,1.278082275390625,-0.0009321057004854083,-0.00013315795513335615,0.0006657897611148655
1783080984740931600,1.297931640625,0.00013315795513335615,-0.0011984215816482902,-0.0003994738799519837
1783080984760780800,1.31778076171875,0.00013315795513335615,-0.00013315795513335615,-0.0003994738799519837
1783080984780630000,1.337630126953125,0.00013315795513335615,0.0009321057004854083,0.0006657897611148655
1783080984800479200,1.357479248046875,0.00013315795513335615,-0.00013315795513335615,0.0006657897611148655
1783080984820328400,1.377328369140625,0.00013315795513335615,0.0009321057004854083,0.0006657897611148655
1783080984840177400,1.397177490234375,-0.0009321057004854083,-0.00013315795513335615,-0.001464737462811172
1783080984860026600,1.417026611328125,0.00013315795513335615,-0.00013315795513335615,-0.0003994738799519837
1783080984879875800,1.436875732421875,0.0011984215816482902,-0.00013315795513335615,-0.0003994738799519837
1783080984899724800,1.456724853515625,0.0011984215816482902,-0.00013315795513335615,-0.0003994738799519837
1783080984919574000,1.476573974609375,0.00013315795513335615,-0.00013315795513335615,0.0006657897611148655
1783080984939423000,1.496423095703125,-0.0009321057004854083,-0.0011984215816482902,0.0006657897611148655
1783080984959272200,1.516272216796875,0.00013315795513335615,0.0009321057004854083,-0.0003994738799519837
1783080984979121400,1.536121337890625,0.00013315795513335615,0.0009321057004854083,-0.0003994738799519837
1783080984998797300,1.55579736328125,0.00013315795513335615,-0.00013315795513335615,-0.0003994738799519837
1783080985018642200,1.57564208984375,0.00013315795513335615,0.0009321057004854083,0.0006657897611148655
1783080985038488000,1.595488037109375,-0.0009321057004854083,-0.00013315795513335615,0.0006657897611148655
1783080985058507300,1.61550732421875,-0.0009321057004854083,-0.00013315795513335615,-0.0003994738799519837
1783080985078185200,1.635185302734375,0.00013315795513335615,-0.00013315795513335615,-0.0003994738799519837
1783080985098204700,1.65520458984375,-0.0009321057004854083,-0.00013315795513335615,-0.0003994738799519837
1783080985117882600,1.674882568359375,-0.0009321057004854083,0.0009321057004854083,0.0006657897611148655
1783080985137729500,1.6947294921875,0.00013315795513335615,-0.00013315795513335615,-0.0003994738799519837
1783080985157749800,1.714749755859375,0.00013315795513335615,0.0009321057004854083,0.0006657897611148655
1783080985177601300,1.734601318359375,0.00013315795513335615,-0.00013315795513335615,0.0006657897611148655
1783080985197452500,1.75445263671875,0.00013315795513335615,0.0009321057004854083,0.0006657897611148655
1783080985217130200,1.774130126953125,0.00013315795513335615,-0.00013315795513335615,-0.0003994738799519837
1783080985236976400,1.793976318359375,0.00013315795513335615,-0.00013315795513335615,-0.0003994738799519837
1783080985256996400,1.813996337890625,0.00013315795513335615,-0.00013315795513335615,-0.0003994738799519837
1783080985276674600,1.833674560546875,0.0011984215816482902,-0.00013315795513335615,0.0006657897611148655
1783080985296521500,1.853521484375,0.00013315795513335615,-0.00013315795513335615,-0.0003994738799519837
1783080985316369000,1.873368896484375,-0.0009321057004854083,-0.00013315795513335615,0.0006657897611148655
1783080985336216600,1.893216552734375,0.00013315795513335615,-0.00013315795513335615,-0.0003994738799519837
1783080985356237600,1.913237548828125,0.00013315795513335615,-0.0011984215816482902,0.0006657897611148655
1783080985376089900,1.93308984375,-0.0009321057004854083,-0.0011984215816482902,-0.0003994738799519837
1783080985395768300,1.952768310546875,-0.0009321057004854083,-0.00013315795513335615,-0.0003994738799519837
1783080985415615200,1.972615234375,0.00013315795513335615,0.0009321057004854083,0.0006657897611148655
1783080985435463000,1.992462890625,0.00013315795513335615,0.0009321057004854083,0.0006657897611148655
1783080985455483600,2.012483642578125,-0.0009321057004854083,0.0009321057004854083,-0.0003994738799519837
1783080985475162400,2.032162353515625,-0.0009321057004854083,-0.00013315795513335615,-0.001464737462811172
1783080985495010000,2.052010009765625,0.00013315795513335615,-0.00013315795513335615,0.0006657897611148655
1783080985515030800,2.07203076171875,0.0011984215816482902,0.0009321057004854083,0.0006657897611148655
1783080985534709800,2.091709716796875,0.00013315795513335615,-0.00013315795513335615,-0.0003994738799519837
1783080985554730200,2.111730224609375,-0.0009321057004854083,-0.00013315795513335615,-0.0003994738799519837
1783080985574408700,2.13140869140625,-0.0009321057004854083,-0.00013315795513335615,0.0006657897611148655
1783080985594256100,2.151256103515625,-0.0009321057004854083,-0.0011984215816482902,0.0006657897611148655
1783080985614138400,2.171138427734375,0.00013315795513335615,-0.00013315795513335615,0.0006657897611148655
1783080985633987000,2.190987060546875,0.00013315795513335615,-0.00013315795513335615,-0.0003994738799519837
1783080985653974500,2.210974609375,0.00013315795513335615,-0.00013315795513335615,-0.0003994738799519837
1783080985673688000,2.23068798828125,0.00013315795513335615,-0.00013315795513335615,-0.0003994738799519837
1783080985693536300,2.250536376953125,0.00013315795513335615,-0.00013315795513335615,0.0006657897611148655
1783080985713350100,2.27035009765625,0.00013315795513335615,-0.0011984215816482902,-0.0003994738799519837
1783080985733197800,2.29019775390625,0.00013315795513335615,-0.0011984215816482902,-0.0003994738799519837
1783080985753046000,2.3100458984375,0.00013315795513335615,-0.00013315795513335615,0.0006657897611148655
1783080985772894200,2.329894287109375,0.00013315795513335615,-0.0011984215816482902,0.0006657897611148655
1783080985792915700,2.349915771484375,-0.0009321057004854083,-0.00013315795513335615,-0.0003994738799519837
1783080985812595000,2.369594970703125,0.00013315795513335615,-0.00013315795513335615,-0.001464737462811172
1783080985832443000,2.38944287109375,0.00013315795513335615,-0.00013315795513335615,0.0006657897611148655
1783080985852290800,2.409290771484375,0.00013315795513335615,-0.0011984215816482902,-0.0003994738799519837
1783080985872139300,2.42913916015625,0.00013315795513335615,-0.00013315795513335615,-0.0003994738799519837
1783080985891987700,2.44898779296875,0.00013315795513335615,0.0009321057004854083,0.0006657897611148655
1783080985911836400,2.46883642578125,0.00013315795513335615,-0.00013315795513335615,-0.0003994738799519837
1783080985931858200,2.488858154296875,0.00013315795513335615,-0.0011984215816482902,-0.0003994738799519837
1783080985951537700,2.50853759765625,0.00013315795513335615,0.0009321057004854083,0.0006657897611148655
1783080985971385600,2.528385498046875,0.00013315795513335615,-0.00013315795513335615,-0.0003994738799519837
1783080985991233800,2.54823388671875,0.00013315795513335615,-0.0011984215816482902,-0.0003994738799519837
1783080986031124700,2.588124755859375,0.00013315795513335615,-0.0011984215816482902,0.0006657897611148655
1783080986050974000,2.607973876953125,0.00013315795513335615,-0.00013315795513335615,0.0006657897611148655
1783080986070823200,2.6278232421875,0.00013315795513335615,-0.0011984215816482902,-0.0003994738799519837
1783080986090672400,2.64767236328125,0.00013315795513335615,-0.00013315795513335615,-0.0003994738799519837
1783080986110521300,2.667521240234375,-0.0009321057004854083,-0.00013315795513335615,-0.0003994738799519837
1783080986130370600,2.68737060546875,0.00013315795513335615,-0.00013315795513335615,-0.0003994738799519837
1783080986150219500,2.707219482421875,0.00013315795513335615,-0.00013315795513335615,-0.001464737462811172
1783080986170068700,2.72706884765625,0.00013315795513335615,-0.00013315795513335615,-0.0003994738799519837
1783080986189918000,2.74691796875,0.00013315795513335615,0.0009321057004854083,0.0006657897611148655
1783080986209767000,2.766766845703125,0.00013315795513335615,-0.00013315795513335615,-0.0003994738799519837
1783080986229616000,2.7866162109375,0.00013315795513335615,-0.00013315795513335615,0.0006657897611148655
1783080986249465000,2.806465087890625,-0.0009321057004854083,-0.00013315795513335615,-0.001464737462811172
1783080986269314300,2.826314208984375,0.00013315795513335615,0.0009321057004854083,-0.0003994738799519837
1783080986289163300,2.846163330078125,-0.0009321057004854083,-0.00013315795513335615,-0.0003994738799519837
1783080986308820200,2.8658203125,0.00013315795513335615,-0.0011984215816482902,-0.0003994738799519837
1783080986328669000,2.8856689453125,0.0011984215816482902,-0.00013315795513335615,-0.0003994738799519837
1783080986348517600,2.905517578125,0.00013315795513335615,-0.00013315795513335615,-0.0003994738799519837
1783080986368559000,2.92555908203125,-0.0009321057004854083,-0.00013315795513335615,0.0006657897611148655
1783080986388215800,2.9452158203125,0.00013315795513335615,-0.00013315795513335615,-0.0003994738799519837
1783080986408064800,2.965064697265625,0.00013315795513335615,-0.00013315795513335615,-0.0003994738799519837
1783080986427913700,2.984913818359375,-0.0009321057004854083,-0.00013315795513335615,0.0006657897611148655
1783080986447762700,3.0047626953125,-0.0009321057004854083,-0.00013315795513335615,-0.0003994738799519837
1783080986467804200,3.02480419921875,0.00013315795513335615,-0.00013315795513335615,0.0006657897611148655
1783080986487460900,3.0444609375,-0.0009321057004854083,-0.00013315795513335615,0.0006657897611148655
1783080986507502600,3.064502685546875,0.00013315795513335615,-0.00013315795513335615,0.0006657897611148655
1783080986527159300,3.0841591796875,0.00013315795513335615,-0.00013315795513335615,-0.0003994738799519837
1783080986547008000,3.104008056640625,0.00013315795513335615,-0.00013315795513335615,-0.0003994738799519837
1783080986567049700,3.1240498046875,0.00013315795513335615,-0.00013315795513335615,0.0006657897611148655
1783080986586706400,3.14370654296875,0.00013315795513335615,-0.0011984215816482902,-0.0003994738799519837
1783080986606555400,3.163555419921875,-0.0009321057004854083,-0.00013315795513335615,-0.0003994738799519837
1783080986626404400,3.183404296875,0.00013315795513335615,0.0009321057004854083,-0.0003994738799519837
1783080986646253300,3.20325341796875,0.0011984215816482902,0.0009321057004854083,0.0006657897611148655
1783080986666295000,3.223294921875,0.00013315795513335615,-0.00013315795513335615,0.0006657897611148655
1783080986685990100,3.242990234375,0.00013315795513335615,-0.00013315795513335615,0.0006657897611148655
1783080986705839000,3.262839111328125,0.00013315795513335615,-0.00013315795513335615,0.0006657897611148655
1783080986725688000,3.28268798828125,0.00013315795513335615,0.0009321057004854083,0.0006657897611148655
1783080986745499000,3.302498779296875,-0.0009321057004854083,-0.00013315795513335615,-0.0003994738799519837
1783080986765540400,3.322540283203125,0.00013315795513335615,-0.00013315795513335615,-0.0003994738799519837
1783080986785389800,3.342389892578125,0.00013315795513335615,0.0009321057004854083,-0.0003994738799519837
1783080986805046500,3.362046630859375,0.00013315795513335615,-0.00013315795513335615,0.0006657897611148655
1783080986824895200,3.381895263671875,0.00013315795513335615,-0.00013315795513335615,0.0006657897611148655
1783080986844744400,3.401744384765625,0.00013315795513335615,-0.00013315795513335615,-0.0003994738799519837
1783080986864786000,3.421785888671875,0.00013315795513335615,-0.00013315795513335615,-0.0003994738799519837
1783080986884442600,3.441442626953125,0.00013315795513335615,-0.00013315795513335615,0.0006657897611148655
1783080986904291600,3.46129150390625,0.00013315795513335615,0.0009321057004854083,-0.0003994738799519837
1783080986924333000,3.4813330078125,0.00013315795513335615,-0.00013315795513335615,-0.0003994738799519837
1783080986944182300,3.501182373046875,0.00013315795513335615,-0.00013315795513335615,-0.0003994738799519837
1783080986964031500,3.521031494140625,0.00013315795513335615,0.0009321057004854083,0.0006657897611148655
1783080986983688400,3.5406884765625,0.00013315795513335615,-0.00013315795513335615,0.0006657897611148655
1783080987003537200,3.560537109375,0.00013315795513335615,-0.00013315795513335615,0.0006657897611148655
1783080987023386000,3.58038623046875,0.00013315795513335615,-0.00013315795513335615,0.0006657897611148655
1783080987043427600,3.600427490234375,0.00013315795513335615,-0.0011984215816482902,-0.0003994738799519837
1783080987063276800,3.62027685546875,0.00013315795513335615,-0.00013315795513335615,0.0006657897611148655
1783080987082933500,3.63993359375,-0.0009321057004854083,-0.00013315795513335615,0.0006657897611148655
1783080987102782500,3.659782470703125,0.00013315795513335615,-0.00013315795513335615,-0.0003994738799519837
1783080987122631400,3.67963134765625,0.00013315795513335615,-0.00013315795513335615,0.0006657897611148655
1783080987142673000,3.6996728515625,0.0011984215816482902,-0.00013315795513335615,0.0006657897611148655
1783080987162329900,3.719329833984375,-0.0009321057004854083,-0.00013315795513335615,0.0006657897611148655
1783080987182178800,3.7391787109375,-0.0009321057004854083,0.0009321057004854083,-0.0003994738799519837
1783080987202220300,3.75922021484375,0.00013315795513335615,0.0009321057004854083,-0.0003994738799519837
1783080987222069500,3.779069580078125,-0.0009321057004854083,-0.0011984215816482902,-0.0003994738799519837
1783080987241918700,3.798918701171875,-0.0009321057004854083,-0.00013315795513335615,0.0006657897611148655
1783080987261575400,3.818575439453125,0.00013315795513335615,0.0009321057004854083,-0.0003994738799519837
1783080987281424400,3.83842431640625,0.00013315795513335615,0.0009321057004854083,0.0006657897611148655
1783080987301273300,3.8582734375,0.00013315795513335615,-0.00013315795513335615,0.0006657897611148655
1783080987321314800,3.878314697265625,0.00013315795513335615,0.0009321057004854083,-0.0003994738799519837
1783080987341164000,3.8981640625,0.00013315795513335615,-0.00013315795513335615,-0.0003994738799519837
1783080987360820700,3.91782080078125,0.0011984215816482902,-0.0011984215816482902,0.0006657897611148655
1783080987380669700,3.937669677734375,0.00013315795513335615,-0.00013315795513335615,0.0006657897611148655
1783080987400518700,3.9575185546875,0.00013315795513335615,0.0009321057004854083,-0.0003994738799519837
1783080987420560100,3.97756005859375,0.00013315795513335615,-0.00013315795513335615,-0.0003994738799519837
1783080987440409300,3.997409423828125,-0.0009321057004854083,-0.00013315795513335615,-0.0003994738799519837
1783080987460066000,4.017066162109375,0.00013315795513335615,0.0009321057004854083,-0.0003994738799519837
1783080987480107500,4.037107421875,0.00013315795513335615,0.0009321057004854083,0.0006657897611148655
1783080987499764200,4.05676416015625,-0.0009321057004854083,-0.00013315795513335615,0.0006657897611148655
1783080987519805700,4.0768056640625,0.00013315795513335615,-0.00013315795513335615,-0.0003994738799519837
1783080987539655000,4.096655029296875,0.0011984215816482902,-0.00013315795513335615,-0.0003994738799519837
1783080987559311600,4.1163115234375,0.00013315795513335615,-0.00013315795513335615,-0.0003994738799519837
1783080987579160600,4.13616064453125,-0.0009321057004854083,-0.00013315795513335615,-0.0003994738799519837
1783080987599009500,4.156009521484375,0.00013315795513335615,-0.00013315795513335615,0.0006657897611148655
1783080987619051000,4.176051025390625,0.00013315795513335615,-0.00013315795513335615,-0.0003994738799519837
1783080987638900200,4.195900146484375,-0.0009321057004854083,-0.00013315795513335615,-0.0003994738799519837
1783080987658557000,4.215556884765625,0.00013315795513335615,-0.00013315795513335615,-0.0003994738799519837
1783080987678406000,4.235406005859375,0.00013315795513335615,-0.00013315795513335615,0.0006657897611148655
1783080987698254800,4.2552548828125,0.00013315795513335615,-0.00013315795513335615,0.0006657897611148655
1783080987718296300,4.27529638671875,0.00013315795513335615,-0.00013315795513335615,-0.0003994738799519837
1783080987737991400,4.294991455078125,0.00013315795513335615,-0.00013315795513335615,0.0006657897611148655
1783080987757840600,4.314840576171875,0.00013315795513335615,-0.00013315795513335615,0.0006657897611148655
1783080987777843700,4.33484375,-0.0009321057004854083,-0.00013315795513335615,0.0006657897611148655
1783080987797538800,4.354538818359375,-0.0009321057004854083,0.0009321057004854083,0.0006657897611148655
1783080987817542000,4.3745419921875,-0.0009321057004854083,-0.00013315795513335615,-0.0003994738799519837
1783080987837391000,4.39439111328125,0.00013315795513335615,-0.00013315795513335615,-0.0003994738799519837
1783080987857047800,4.4140478515625,-0.0009321057004854083,-0.00013315795513335615,-0.0003994738799519837
1783080987877089300,4.43408935546875,0.00013315795513335615,-0.00013315795513335615,0.0006657897611148655
1783080987896746000,4.45374609375,0.00013315795513335615,-0.00013315795513335615,-0.0003994738799519837
1783080987916787500,4.473787353515625,0.00013315795513335615,-0.00013315795513335615,-0.0003994738799519837
1783080987936636700,4.49363671875,-0.0009321057004854083,-0.00013315795513335615,-0.0003994738799519837
1783080987956293000,4.513293212890625,0.00013315795513335615,0.0009321057004854083,0.0006657897611148655
1783080987976334600,4.53333447265625,0.00013315795513335615,0.0009321057004854083,-0.0003994738799519837
1783080987995991300,4.5529912109375,-0.0019973693415522575,-0.00013315795513335615,-0.0003994738799519837
1783080988016032800,4.57303271484375,-0.0009321057004854083,-0.00013315795513335615,-0.0003994738799519837
1783080988035882000,4.592882080078125,0.00013315795513335615,-0.00013315795513335615,-0.0003994738799519837
1783080988055731200,4.612731201171875,0.00013315795513335615,-0.00013315795513335615,-0.0003994738799519837
1783080988075580200,4.632580078125,0.00013315795513335615,-0.00013315795513335615,-0.0003994738799519837
1783080988095237000,4.652237060546875,0.00013315795513335615,-0.00013315795513335615,-0.0003994738799519837
1783080988115278300,4.6722783203125,0.00013315795513335615,-0.00013315795513335615,-0.0003994738799519837
1783080988135127600,4.69212744140625,0.00013315795513335615,-0.00013315795513335615,-0.0003994738799519837
1783080988154976500,4.7119765625,0.00013315795513335615,-0.00013315795513335615,-0.0003994738799519837
1783080988174825700,4.73182568359375,-0.0009321057004854083,-0.00013315795513335615,0.0006657897611148655
1783080988194675000,4.751675048828125,0.00013315795513335615,-0.00013315795513335615,0.0006657897611148655
1783080988214524200,4.771524169921875,0.00013315795513335615,0.0009321057004854083,0.0006657897611148655
1783080988234373000,4.791373046875,-0.0009321057004854083,-0.00013315795513335615,-0.0003994738799519837
1783080988254222300,4.811222412109375,0.00013315795513335615,-0.00013315795513335615,-0.001464737462811172
1783080988274071300,4.8310712890625,0.00013315795513335615,-0.00013315795513335615,-0.0003994738799519837
1783080988293920500,4.85092041015625,0.00013315795513335615,-0.00013315795513335615,-0.0003994738799519837
1783080988313769500,4.87076953125,0.00013315795513335615,-0.00013315795513335615,-0.0003994738799519837
1783080988333618700,4.89061865234375,0.00013315795513335615,0.0009321057004854083,-0.001464737462811172
1783080988353467600,4.910467529296875,0.00013315795513335615,0.0009321057004854083,0.0006657897611148655
1783080988373316900,4.93031689453125,-0.0009321057004854083,0.0009321057004854083,0.0006657897611148655
1783080988393127400,4.95012744140625,0.00013315795513335615,0.0009321057004854083,0.0006657897611148655
1783080988413014800,4.970014892578125,0.00013315795513335615,0.0009321057004854083,0.0006657897611148655
1783080988432864000,4.989864013671875,0.00013315795513335615,-0.00013315795513335615,0.0006657897611148655
1783080988452713200,5.009713134765625,0.00013315795513335615,-0.00013315795513335615,-0.0003994738799519837
1783080988472562200,5.029562255859375,0.00013315795513335615,-0.0011984215816482902,-0.0003994738799519837
1783080988492411100,5.0494111328125,0.00013315795513335615,-0.00013315795513335615,0.0006657897611148655
1783080988512260400,5.06926025390625,0.00013315795513335615,-0.00013315795513335615,0.0006657897611148655
1783080988532109300,5.089109375,0.00013315795513335615,-0.00013315795513335615,-0.0003994738799519837
1783080988551958500,5.10895849609375,0.00013315795513335615,-0.00013315795513335615,-0.0003994738799519837
1783080988571807500,5.128807373046875,0.00013315795513335615,-0.00013315795513335615,-0.0003994738799519837
1783080988591656700,5.14865673828125,0.00013315795513335615,-0.0011984215816482902,-0.0003994738799519837
1783080988611505700,5.168505615234375,0.00013315795513335615,-0.00013315795513335615,0.0006657897611148655
1783080988631355000,5.18835498046875,0.00013315795513335615,-0.0011984215816482902,-0.0003994738799519837
1783080988651203800,5.208203857421875,0.00013315795513335615,-0.00013315795513335615,0.0006657897611148655
1783080988671053000,5.228052978515625,0.00013315795513335615,-0.00013315795513335615,-0.0003994738799519837
1783080988690902000,5.247902099609375,0.0011984215816482902,-0.00013315795513335615,-0.0003994738799519837
1783080988710751200,5.267751220703125,0.00013315795513335615,-0.00013315795513335615,-0.0003994738799519837
1783080988730600200,5.28760009765625,-0.0009321057004854083,-0.00013315795513335615,0.0006657897611148655
1783080988750449400,5.307449462890625,0.00013315795513335615,-0.00013315795513335615,0.0006657897611148655
1783080988770298400,5.32729833984375,0.00013315795513335615,-0.0011984215816482902,0.0006657897611148655
1783080988790147300,5.347147216796875,0.00013315795513335615,-0.00013315795513335615,0.0006657897611148655
1783080988809996500,5.36699658203125,0.0011984215816482902,0.0009321057004854083,0.0006657897611148655
1783080988829845500,5.386845458984375,0.00013315795513335615,-0.00013315795513335615,0.0006657897611148655
1783080988849694700,5.40669482421875,0.00013315795513335615,-0.00013315795513335615,0.0006657897611148655
1783080988869543700,5.426543701171875,0.00013315795513335615,-0.00013315795513335615,0.0006657897611148655
1783080988889393000,5.446392822265625,0.00013315795513335615,-0.00013315795513335615,0.0006657897611148655
1783080988909126400,5.46612646484375,0.00013315795513335615,0.0009321057004854083,-0.0003994738799519837
1783080988928898600,5.485898681640625,0.00013315795513335615,-0.0011984215816482902,0.0006657897611148655
1783080988948747300,5.505747314453125,-0.0009321057004854083,-0.00013315795513335615,0.0006657897611148655
1783080988968788700,5.525788818359375,0.00013315795513335615,-0.00013315795513335615,-0.0003994738799519837
1783080988988445400,5.545445556640625,0.00013315795513335615,0.0009321057004854083,-0.0003994738799519837
1783080989008294100,5.565294189453125,0.0011984215816482902,-0.00013315795513335615,-0.0003994738799519837
1783080989028335600,5.585335693359375,-0.0009321057004854083,-0.00013315795513335615,0.0006657897611148655
1783080989047992300,5.604992431640625,-0.0009321057004854083,-0.00013315795513335615,0.0006657897611148655
1783080989068033800,5.62503369140625,-0.0009321057004854083,0.0009321057004854083,-0.0003994738799519837
1783080989087690500,5.6446904296875,0.00013315795513335615,0.0019973693415522575,-0.0003994738799519837
1783080989107539500,5.66453955078125,0.00013315795513335615,-0.00013315795513335615,-0.0003994738799519837
1783080989127388400,5.684388427734375,0.00013315795513335615,-0.00013315795513335615,-0.0003994738799519837
1783080989147237400,5.7042373046875,0.00013315795513335615,-0.00013315795513335615,-0.0003994738799519837
1783080989167279000,5.724279052734375,0.00013315795513335615,0.0009321057004854083,0.0006657897611148655
1783080989186935600,5.743935546875,0.00013315795513335615,-0.00013315795513335615,-0.0003994738799519837
1783080989206784500,5.763784423828125,0.00013315795513335615,-0.00013315795513335615,0.0006657897611148655
1783080989226633700,5.7836337890625,-0.0009321057004854083,0.0009321057004854083,-0.0003994738799519837
1783080989246482700,5.803482666015625,0.00013315795513335615,0.0009321057004854083,-0.0003994738799519837
1783080989266524400,5.8235244140625,-0.0009321057004854083,0.0009321057004854083,-0.0003994738799519837
1783080989286180900,5.843180908203125,0.00013315795513335615,-0.00013315795513335615,0.0006657897611148655
1783080989306222600,5.86322265625,0.00013315795513335615,-0.00013315795513335615,0.0006657897611148655
1783080989325879300,5.88287939453125,-0.0009321057004854083,-0.00013315795513335615,-0.0003994738799519837
1783080989345728300,5.902728271484375,-0.0009321057004854083,-0.00013315795513335615,-0.0003994738799519837
1783080989365769700,5.922769775390625,0.00013315795513335615,-0.00013315795513335615,0.0006657897611148655
1783080989385426400,5.942426513671875,-0.0009321057004854083,-0.00013315795513335615,-0.0003994738799519837
1783080989405275400,5.962275390625,-0.0009321057004854083,-0.0011984215816482902,0.0006657897611148655
1783080989425124400,5.982124267578125,0.00013315795513335615,-0.00013315795513335615,0.0006657897611148655
1783080989445166000,6.002166015625,0.00013315795513335615,0.0009321057004854083,-0.0003994738799519837
1783080989465015300,6.022015380859375,0.00013315795513335615,-0.00013315795513335615,0.0006657897611148655
1783080989484672000,6.041672119140625,0.00013315795513335615,0.0009321057004854083,-0.0003994738799519837
1783080989504521000,6.06152099609375,0.00013315795513335615,-0.00013315795513335615,-0.0003994738799519837
1783080989524370000,6.081369873046875,0.00013315795513335615,-0.00013315795513335615,0.0006657897611148655
1783080989544411400,6.101411376953125,0.00013315795513335615,-0.00013315795513335615,-0.0003994738799519837
1783080989564260600,6.121260498046875,0.00013315795513335615,-0.00013315795513335615,-0.0003994738799519837
1783080989584110000,6.141110107421875,0.00013315795513335615,-0.00013315795513335615,-0.0003994738799519837
1783080989603766800,6.160766845703125,-0.0009321057004854083,-0.0011984215816482902,0.0006657897611148655
1783080989623615500,6.180615478515625,-0.0009321057004854083,-0.00013315795513335615,-0.0003994738799519837
1783080989643657000,6.200656982421875,0.00013315795513335615,-0.00013315795513335615,0.0006657897611148655
1783080989663313700,6.220313720703125,-0.0009321057004854083,-0.00013315795513335615,0.0006657897611148655
1783080989683162600,6.24016259765625,0.00013315795513335615,-0.00013315795513335615,0.0006657897611148655
1783080989703011800,6.26001171875,0.00013315795513335615,-0.00013315795513335615,-0.0003994738799519837
1783080989723053300,6.28005322265625,-0.0009321057004854083,-0.00013315795513335615,-0.0003994738799519837
1783080989742902500,6.299902587890625,0.00013315795513335615,-0.0011984215816482902,-0.0003994738799519837
1783080989762559200,6.319559326171875,-0.0009321057004854083,-0.0011984215816482902,-0.0003994738799519837
1783080989782408200,6.339408203125,-0.0009321057004854083,-0.00013315795513335615,-0.0003994738799519837
1783080989802257200,6.359257080078125,0.00013315795513335615,-0.00013315795513335615,-0.0003994738799519837
1783080989822298600,6.379298583984375,-0.0009321057004854083,-0.00013315795513335615,-0.0003994738799519837
1783080989842147800,6.39914794921875,0.00013315795513335615,-0.00013315795513335615,-0.0003994738799519837
1783080989861997000,6.4189970703125,0.00013315795513335615,-0.0011984215816482902,-0.0003994738799519837
1783080989881692200,6.438692138671875,0.00013315795513335615,-0.00013315795513335615,-0.0003994738799519837
1783080989901541000,6.458541015625,0.0011984215816482902,-0.00013315795513335615,0.0006657897611148655
1783080989921544200,6.478544189453125,-0.0009321057004854083,-0.00013315795513335615,-0.0003994738799519837
1783080989941393400,6.498393310546875,0.00013315795513335615,0.0009321057004854083,-0.0003994738799519837
1783080989961050000,6.518050048828125,-0.0009321057004854083,-0.00013315795513335615,-0.0003994738799519837
1783080989980899000,6.537899169921875,0.0011984215816482902,-0.00013315795513335615,-0.0003994738799519837
1783080990000940500,6.5579404296875,0.00013315795513335615,-0.00013315795513335615,0.0006657897611148655
1783080990020789800,6.577789794921875,0.00013315795513335615,0.0009321057004854083,0.0006657897611148655
1783080990040639000,6.597638916015625,0.0011984215816482902,0.0009321057004854083,-0.0003994738799519837
1783080990060295700,6.617295654296875,0.00013315795513335615,-0.00013315795513335615,0.0006657897611148655
1783080990080144400,6.637144287109375,-0.0009321057004854083,-0.00013315795513335615,-0.0003994738799519837
1783080990099993300,6.656993408203125,0.00013315795513335615,-0.00013315795513335615,-0.0003994738799519837
1783080990120035000,6.67703515625,-0.0009321057004854083,-0.00013315795513335615,-0.001464737462811172
1783080990139884000,6.696884033203125,0.00013315795513335615,0.0009321057004854083,-0.0003994738799519837
1783080990159540700,6.716540771484375,0.00013315795513335615,0.0009321057004854083,-0.0003994738799519837
1783080990179389700,6.7363896484375,0.00013315795513335615,0.0009321057004854083,-0.0003994738799519837
1783080990199238700,6.75623876953125,0.00013315795513335615,0.0009321057004854083,0.0006657897611148655
1783080990219280400,6.7762802734375,-0.0009321057004854083,0.0009321057004854083,-0.0003994738799519837
1783080990239129600,6.796129638671875,-0.0009321057004854083,-0.0011984215816482902,-0.0003994738799519837
1783080990258786000,6.8157861328125,0.00013315795513335615,-0.0011984215816482902,-0.0003994738799519837
1783080990278827500,6.83582763671875,0.00013315795513335615,-0.00013315795513335615,0.0006657897611148655
1783080990298484500,6.855484375,0.00013315795513335615,0.005193160381168127,0.002796316985040903
1783080990318525700,6.875525634765625,0.00013315795513335615,0.0019973693415522575,0.0017310534603893757
