time,seconds_elapsed,z,y,x
1783080803134072300,0.087072265625,-6.607224464416504,-0.1796720027923584,-0.72536301612854
1783080803173727000,0.12672705078125,-9.855974197387695,-0.7027194499969482,-0.966820478439331
1783080803193613600,0.146613525390625,-9.979371070861816,-1.350814700126648,0.3277983069419861
1783080803213253600,0.166253662109375,-9.740324020385742,-2.0610666275024414,1.509023904800415
1783080803233106000,0.18610595703125,-9.222745895385742,-2.3997201919555664,3.3905954360961914
1783080803252973300,0.205973388671875,-7.943974018096924,-2.4029390811920166,4.178194046020508
1783080803272975600,0.2259755859375,-6.908857345581055,-3.5037310123443604,3.706101179122925
1783080803292809000,0.24580908203125,-6.682863712310791,-4.493077278137207,3.3124566078186035
1783080803312507100,0.265507080078125,-6.815464019775391,-5.1896209716796875,3.3654632568359375
1783080803332358400,0.2853583984375,-7.068519592285156,-5.495710372924805,3.6940762996673584
1783080803352225300,0.305225341796875,-7.554318904876709,-5.513662815093994,3.169396162033081
1783080803372226800,0.325226806640625,-7.092031955718994,-5.749375343322754,2.3142504692077637
1783080803392060000,0.345059814453125,-4.122262001037598,-5.047815322875977,1.88875412940979
1783080803411757300,0.36475732421875,0.49613189697265625,-3.301640510559082,1.5799272060394287
1783080803431608600,0.384608642578125,4.7634992599487305,0.33010339736938477,0.05734282732009888
1783080803451475000,0.404474853515625,7.263674736022949,5.888084888458252,-3.5967936515808105
1783080803471457300,0.424457275390625,12.3565034866333,10.186049461364746,-6.418865203857422
1783080803491136300,0.44413623046875,20.638193130493164,9.39111328125,-6.083590507507324
1783080803511176200,0.46417626953125,27.9197998046875,6.495100975036621,-4.513835906982422
1783080803531005200,0.484005126953125,25.962875366210938,5.370699882507324,-3.5432024002075195
1783080803550684400,0.503684326171875,17.00540542602539,5.892392635345459,-3.645850419998169
1783080803570709200,0.523709228515625,7.977821350097656,6.439166069030762,-3.315803050994873
1783080803590402600,0.543402587890625,0.30058860778808594,5.7813720703125,-2.0891056060791016
1783080803610215700,0.563215576171875,-4.78859806060791,3.3387794494628906,-1.1946169137954712
1783080803630067000,0.58306689453125,-6.716335296630859,0.07016754150390625,-0.7952516078948975
1783080803649937400,0.6029375,-6.106078624725342,-2.409581184387207,-0.5906656980514526
1783080803669957600,0.62295751953125,-5.303576946258545,-3.054882526397705,-1.0156418085098267
1783080803689616400,0.642616455078125,-6.2296977043151855,-2.771545886993408,-1.7464255094528198
1783080803709467100,0.662467041015625,-8.201963424682617,-2.308645725250244,-2.049926519393921
1783080803729317600,0.682317626953125,-9.818416595458984,-1.8760263919830322,-2.2042927742004395
1783080803749187800,0.702187744140625,-11.328914642333984,-2.9846324920654297,-1.677779197692871
1783080803769207600,0.72220751953125,-11.316244125366211,-3.088819980621338,-1.409684658050537
1783080803788885800,0.7418857421875,-10.070016860961914,-3.7076005935668945,-0.5766749382019043
1783080803808925000,0.761925048828125,-8.732124328613281,-4.416037082672119,0.09992236644029617
1783080803828753400,0.78175341796875,-7.921562671661377,-4.695124626159668,0.1957445591688156
1783080803848412700,0.80141259765625,-7.9448041915893555,-4.780799388885498,0.09792883694171906
1783080803868264000,0.821263916015625,-7.982614517211914,-4.390544891357422,-0.1352723091840744
1783080803888114700,0.84111474609375,-7.5997748374938965,-3.898737907409668,-0.20993757247924805
1783080803907965400,0.86096533203125,-5.829358100891113,-3.366591691970825,0.5506560206413269
1783080803947861800,0.90086181640625,1.7905054092407227,-0.5739107131958008,1.1260969638824463
1783080803967711700,0.920711669921875,6.751923561096191,1.888267993927002,1.5580003261566162
1783080803987561500,0.9405615234375,11.2531099319458,4.969880104064941,0.6966188549995422
1783080804007411200,0.9604111328125,14.563141822814941,8.456948280334473,-0.3763487935066223
1783080804027261000,0.980260986328125,17.741819381713867,9.01939868927002,-0.14927619695663452
1783080804047189200,1.000189208984375,19.890933990478516,6.632145404815674,0.761837363243103
1783080804066960600,1.019960693359375,18.20189666748047,4.23159646987915,2.32615327835083
1783080804086810400,1.039810302734375,11.887578010559082,4.239311218261719,1.2087386846542358
1783080804106660000,1.05966015625,3.253371238708496,4.262363433837891,-0.21078212559223175
1783080804126510000,1.079510009765625,-3.1149187088012695,2.9927358627319336,-0.6129152774810791
1783080804146359800,1.09935986328125,-4.473062038421631,-0.1783912181854248,-0.03939694166183472
1783080804166209500,1.11920947265625,-0.7942819595336914,-3.0683670043945312,0.7668748497962952
1783080804186059300,1.139059326171875,1.448984146118164,-3.491971492767334,0.42018693685531616
1783080804205909000,1.158908935546875,-1.6013474464416504,-1.7371639013290405,-1.5658109188079834
1783080804225758700,1.1787587890625,-6.073836326599121,-0.36304783821105957,-2.91706919670105
1783080804245608400,1.1986083984375,-8.755502700805664,-0.10525226593017578,-2.880725860595703
1783080804265458200,1.218458251953125,-9.013752937316895,-0.7463932037353516,-1.8946479558944702
1783080804285308000,1.238307861328125,-8.28350830078125,-1.9048876762390137,-0.6394851207733154
1783080804305157600,1.25815771484375,-7.859714984893799,-3.6204442977905273,0.8890343904495239
1783080804325010000,1.278010009765625,-7.590733051300049,-3.156660795211792,0.23847442865371704
1783080804344857300,1.297857421875,-7.627189636230469,-3.6896750926971436,-0.20948708057403564
1783080804364707000,1.31770703125,-7.527271747589111,-3.6731982231140137,-0.8582307696342468
1783080804384556800,1.337556884765625,-7.783325672149658,-3.5496397018432617,-1.1906672716140747
1783080804404406500,1.357406494140625,-8.015090942382812,-3.3752400875091553,-1.4732720851898193
1783080804424179200,1.37717919921875,-7.946517467498779,-2.8324286937713623,-1.7332743406295776
1783080804443913500,1.39691357421875,-7.710390090942383,-2.476869583129883,-1.466087818145752
1783080804463955500,1.41695556640625,-6.286635398864746,-2.173344373703003,-0.7653617858886719
1783080804483689700,1.436689697265625,-2.945863723754883,-0.9407429695129395,-0.5775912404060364
1783080804503655000,1.456655029296875,1.768885612487793,2.0872607231140137,-0.430310994386673
1783080804523312000,1.47631201171875,7.579677581787109,6.051774978637695,-0.7693726420402527
1783080804543407900,1.496407958984375,12.333200454711914,10.531355857849121,-2.3514137268066406
1783080804583148300,1.536148193359375,25.915267944335938,5.046947479248047,1.879058837890625
1783080804602788400,1.555788330078125,29.710264205932617,1.408947229385376,3.368809461593628
1783080804622752800,1.575752685546875,22.4370059967041,3.119234561920166,0.17928585410118103
1783080804642410200,1.59541015625,10.164966583251953,5.205254554748535,-1.8867366313934326
1783080804662452500,1.615452392578125,-0.7451066970825195,5.087752819061279,-2.1316473484039307
1783080804682109700,1.635109619140625,-7.764290809631348,2.820005416870117,-1.037811279296875
1783080804701959400,1.65495947265625,-9.0733003616333,0.10261082649230957,0.31851649284362793
1783080804721809000,1.674808837890625,-6.263461589813232,-2.0763468742370605,0.2144993543624878
1783080804741658600,1.69465869140625,-4.419726371765137,-2.4835245609283447,-1.5441319942474365
1783080804761700900,1.714700927734375,-5.651633262634277,-1.824674129486084,-3.2506155967712402
1783080804781550800,1.73455078125,-8.286048889160156,-1.6125762462615967,-3.900850296020508
1783080804801208300,1.754208251953125,-10.220457077026367,-1.8877203464508057,-3.35343599319458
1783080804821057800,1.774057861328125,-10.488263130187988,-2.7314062118530273,-2.0736427307128906
1783080804840907500,1.793907470703125,-9.068238258361816,-3.681948184967041,-0.7352688312530518
1783080804860949800,1.81394970703125,-7.408929824829102,-4.63526725769043,0.3357519507408142
1783080804880607000,1.83360693359375,-6.611572742462158,-4.841880798339844,0.36414021253585815
1783080804900456700,1.853456787109375,-6.833380699157715,-4.401639938354492,-0.4569535553455353
1783080804920499000,1.8734990234375,-7.475503444671631,-3.536757707595825,-1.4958274364471436
1783080804940156400,1.893156494140625,-8.44245433807373,-2.9047696590423584,-2.341676712036133
1783080804960198700,1.91319873046875,-8.561939239501953,-2.7194628715515137,-2.215956687927246
1783080804979856000,1.93285595703125,-7.185614109039307,-2.6718478202819824,-1.5496149063110352
1783080804999705600,1.95270556640625,-5.569403171539307,-2.0682833194732666,-1.1256595849990845
1783080805019555000,1.97255517578125,-3.093379020690918,-0.9289131164550781,-0.6588093042373657
1783080805039404800,1.99240478515625,0.5004453659057617,1.4837861061096191,-0.439816951751709
1783080805059447000,2.012447021484375,5.0103559494018555,5.84507417678833,-2.054935932159424
1783080805079104500,2.0321044921875,9.666918754577637,10.070364952087402,-4.071629524230957
1783080805098954200,2.051954345703125,18.425020217895508,11.488178253173828,-2.3949735164642334
1783080805118804000,2.071803955078125,28.73534393310547,6.516190528869629,4.134097099304199
1783080805138653400,2.0916533203125,32.62213897705078,2.5802958011627197,6.879142761230469
1783080805158503200,2.111503173828125,25.770008087158203,2.8412435054779053,4.040528774261475
1783080805178545700,2.131545654296875,14.33499526977539,4.390531539916992,0.927453875541687
1783080805198395400,2.1513955078125,4.644766807556152,5.0323309898376465,-0.103284552693367
1783080805218091300,2.17109130859375,-1.7541375160217285,3.5108819007873535,0.14516741037368774
1783080805237941000,2.19094091796875,-4.150493621826172,0.8260941505432129,0.8217117786407471
1783080805257790700,2.210790771484375,-5.755326271057129,-1.2139372825622559,0.8846520185470581
1783080805277602000,2.23060205078125,-8.313565254211426,-2.090369939804077,-0.06328079104423523
1783080805297456000,2.2504560546875,-9.87645435333252,-2.1585564613342285,-1.2965068817138672
1783080805317534000,2.270533935546875,-11.020859718322754,-2.101332664489746,-2.103416919708252
1783080805337348400,2.290348388671875,-12.103534698486328,-2.2491583824157715,-2.191650867462158
1783080805357197300,2.310197265625,-12.825570106506348,-2.7419188022613525,-2.033918857574463
1783080805377046300,2.33004638671875,-12.4307861328125,-3.1526217460632324,-1.5320703983306885
1783080805396895700,2.349895751953125,-10.965428352355957,-3.8618099689483643,-0.5912379622459412
1783080805436667100,2.389667236328125,-8.689966201782227,-5.041194915771484,-0.2679935097694397
1783080805456526600,2.409526611328125,-7.9870076179504395,-5.2124342918396,-0.8502637147903442
1783080805476290600,2.42929052734375,-7.722475528717041,-5.132687568664551,-1.245736837387085
1783080805496106000,2.44910595703125,-7.982048034667969,-5.178229331970215,-1.2485171556472778
1783080805515993900,2.468993896484375,-8.378996849060059,-5.442934036254883,-1.0074471235275269
1783080805535843300,2.48884326171875,-8.330262184143066,-5.071881294250488,-0.8396154642105103
1783080805555692800,2.50869287109375,-7.068782806396484,-4.215536117553711,0.1665492057800293
1783080805575542300,2.528542236328125,-2.6795973777770996,-2.668940305709839,1.2760831117630005
1783080805595392000,2.54839208984375,3.809615135192871,-0.15174412727355957,2.429229736328125
1783080805615241500,2.568241455078125,8.915796279907227,4.77523136138916,1.4247181415557861
1783080805635091200,2.58809130859375,15.25019645690918,11.384095191955566,-2.1386091709136963
1783080805654940700,2.607940673828125,28.221683502197266,8.993473052978516,1.9837706089019775
1783080805674790400,2.627790283203125,39.93129348754883,3.1752169132232666,8.113341331481934
1783080805694640000,2.64764013671875,36.21748352050781,4.012460708618164,5.507821559906006
1783080805714489900,2.66748974609375,22.1842098236084,7.2043938636779785,0.8427859544754028
1783080805734332000,2.687331787109375,11.45133113861084,7.420822620391846,-0.2514435946941376
1783080805754113800,2.70711376953125,4.791987419128418,5.356451988220215,0.30261045694351196
1783080805774040300,2.727040283203125,-0.5398187637329102,2.6011345386505127,0.8383470773696899
1783080805793870600,2.74687060546875,-5.343084335327148,0.0637660026550293,0.09174758195877075
1783080805813531600,2.76653173828125,-7.899918556213379,-1.6945996284484863,-2.0902342796325684
1783080805833384000,2.786384033203125,-8.301947593688965,-2.4013051986694336,-3.5378901958465576
1783080805853255200,2.806255126953125,-9.477659225463867,-3.0163919925689697,-3.0989599227905273
1783080805873276200,2.826276123046875,-11.706340789794922,-3.411496162414551,-2.295983076095581
1783080805892955100,2.845955078125,-13.163179397583008,-4.067869186401367,-1.4319857358932495
1783080805912976000,2.865975830078125,-12.750746726989746,-4.775065898895264,-0.7975347638130188
1783080805932635400,2.885635498046875,-11.710180282592773,-5.4042816162109375,-0.788731575012207
1783080805952506400,2.90550634765625,-10.57676887512207,-5.984147548675537,-1.0069712400436401
1783080805972526600,2.925526611328125,-9.631271362304688,-6.1599016189575195,-1.1671730279922485
1783080805992185900,2.945185791015625,-9.469654083251953,-6.4455108642578125,-1.354348063468933
1783080806012036900,2.965036865234375,-9.153910636901855,-6.779049873352051,-1.4787962436676025
1783080806031887600,2.9848876953125,-8.66720199584961,-6.517321586608887,-1.6420083045959473
1783080806051757800,3.0047578125,-7.665692329406738,-5.800528049468994,-1.203871726989746
1783080806071777800,3.02477783203125,-6.657173156738281,-4.951280117034912,-0.31086796522140503
1783080806091436300,3.044436279296875,-4.942377090454102,-3.699831008911133,0.13280078768730164
1783080806131388700,3.084388671875,5.511695384979248,2.433805465698242,1.6750593185424805
1783080806151265000,3.10426513671875,8.618673324584961,7.24374532699585,-0.4988102316856384
1783080806171041500,3.12404150390625,11.083719253540039,12.455158233642578,-4.762009143829346
1783080806190889700,3.1438896484375,17.825794219970703,11.494821548461914,-2.422151565551758
1783080806210738200,3.16373828125,26.944889068603516,5.1977314949035645,4.930821895599365
1783080806230571500,3.183571533203125,25.296039581298828,2.1051878929138184,7.146371364593506
1783080806250285300,3.203285400390625,12.787168502807617,3.3958749771118164,3.321009874343872
1783080806270272300,3.223272216796875,-0.15863609313964844,3.782378673553467,0.06895534694194794
1783080806289970200,3.24297021484375,-5.961676597595215,2.2077813148498535,0.9672147035598755
1783080806309836800,3.2628369140625,-3.4408445358276367,-1.201336145401001,4.487894058227539
1783080806329819400,3.2828193359375,3.193208694458008,-3.448352813720703,3.6881802082061768
1783080806349499000,3.302498779296875,4.204023361206055,-2.588740587234497,0.7821643352508545
1783080806369519600,3.32251953125,-1.2738142013549805,-1.0152530670166016,-1.9358007907867432
1783080806389179100,3.34217919921875,-7.33206844329834,-0.5477015972137451,-2.430100679397583
1783080806409030700,3.36203076171875,-10.016544342041016,-0.8499066829681396,-1.780846357345581
1783080806428881700,3.381881591796875,-9.386739730834961,-1.8976528644561768,-1.1581469774246216
1783080806448751900,3.401751953125,-7.325004577636719,-2.580806016921997,-0.8642093539237976
1783080806468772000,3.421772216796875,-6.875004768371582,-2.660731792449951,-1.5373468399047852
1783080806488430800,3.441430908203125,-7.645905494689941,-2.472904682159424,-2.2562568187713623
1783080806508281600,3.461281494140625,-7.886772632598877,-2.512647867202759,-1.912560224533081
1783080806528132000,3.481132080078125,-7.263321876525879,-2.8893446922302246,-0.9054449796676636
1783080806547982600,3.500982666015625,-6.626189231872559,-3.1340572834014893,-0.46554380655288696
1783080806567832800,3.520832763671875,-6.610858917236328,-2.9806108474731445,-0.6475239396095276
1783080806587702500,3.54070263671875,-7.401801109313965,-2.8061602115631104,-0.5709932446479797
1783080806607722200,3.56072216796875,-8.218754768371582,-2.749394655227661,0.036457359790802
1783080806627380500,3.58038037109375,-8.884601593017578,-2.1065642833709717,0.006244778633117676
1783080806647231000,3.60023095703125,-8.012504577636719,-0.9198024272918701,-0.4906265437602997
1783080806667077600,3.62007763671875,-5.182456016540527,1.677535057067871,-1.2377289533615112
1783080806686893800,3.639893798828125,0.5072307586669922,4.850726127624512,-3.3771679401397705
1783080806706782200,3.6597822265625,11.478241920471191,8.881173133850098,-3.368196725845337
1783080806726652000,3.67965185546875,26.001750946044922,3.169694423675537,7.011377334594727
1783080806746671000,3.699671142578125,40.01167297363281,-5.386497497558594,9.083406448364258
1783080806766329300,3.719329345703125,42.11460876464844,-2.007750988006592,-0.7288797497749329
1783080806786179600,3.7391796875,28.65910530090332,-1.0944054126739502,-1.5170327425003052
1783080806826075000,3.779074951171875,-4.207605361938477,2.5563158988952637,-1.1501930952072144
1783080806845924600,3.798924560546875,-7.807225227355957,1.7217373847961426,-0.2640078663825989
1783080806865774600,3.818774658203125,-6.2044477462768555,-0.14219403266906738,0.24174144864082336
1783080806885624300,3.838624267578125,-2.746487617492676,-1.2816681861877441,-1.0529148578643799
1783080806905474300,3.858474365234375,-3.406391143798828,-0.7455847263336182,-2.7153332233428955
1783080806925324000,3.878323974609375,-8.373164176940918,0.1609504222869873,-3.3853771686553955
1783080806945173800,3.898173828125,-11.648667335510254,0.16774535179138184,-2.362684726715088
1783080806965023500,3.9180234375,-11.393916130065918,-0.5028624534606934,-0.9032391905784607
1783080806984873200,3.937873291015625,-8.823331832885742,-1.3496756553649902,0.08393603563308716
1783080807004723200,3.95772314453125,-7.37697696685791,-1.8553119897842407,-0.2739773094654083
1783080807024573000,3.977572998046875,-7.351316452026367,-2.043396472930908,-0.8152908086776733
1783080807044422700,3.997422607421875,-8.300092697143555,-2.2990572452545166,-0.5849999785423279
1783080807064272400,4.0172724609375,-9.45530891418457,-2.4725124835968018,-0.00968015193939209
1783080807084122000,4.0371220703125,-9.823162078857422,-2.626302480697632,0.914511501789093
1783080807103971800,4.056971923828125,-9.47123908996582,-2.7961068153381348,2.0201995372772217
1783080807123629300,4.07662939453125,-8.656454086303711,-2.709533452987671,2.316298007965088
1783080807143478800,4.096478759765625,-7.921004772186279,-2.746546745300293,2.458923578262329
1783080807163520800,4.116520751953125,-5.443979740142822,-1.8581516742706299,4.403713703155518
1783080807183178000,4.136177978515625,-4.017813682556152,0.7833342552185059,2.01643967628479
1783080807203027700,4.15602783203125,0.18271446228027344,4.916082382202148,1.5283799171447754
1783080807223069700,4.176069580078125,6.962176322937012,9.86653995513916,-1.021651029586792
1783080807242727200,4.19572705078125,12.753159523010254,11.999424934387207,-6.153758525848389
1783080807262769200,4.21576904296875,17.74115562438965,6.715354919433594,-0.7090311050415039
1783080807282619100,4.235619140625,23.669761657714844,1.2251472473144531,4.882534503936768
1783080807302314800,4.255314697265625,25.5196533203125,1.4966771602630615,2.480959415435791
1783080807322318600,4.275318603515625,17.621265411376953,2.4743034839630127,-2.8668150901794434
1783080807342014200,4.29501416015625,6.481894493103027,3.2651705741882324,-2.0299899578094482
1783080807362018000,4.31501806640625,-2.6381664276123047,1.6931018829345703,1.1325867176055908
1783080807381675500,4.334675537109375,-7.4640607833862305,0.8151214122772217,11.608199119567871
1783080807401525000,4.35452490234375,-6.472393989562988,0.45893430709838867,4.400506019592285
1783080807421374500,4.37437451171875,-3.221303939819336,-0.12499022483825684,-2.980809450149536
1783080807441224200,4.39422412109375,-3.21046781539917,-0.6554669141769409,-0.5122454166412354
1783080807461266400,4.414266357421875,-4.259356498718262,-0.2365131378173828,-0.16018247604370117
1783080807480923600,4.433923583984375,-7.466954708099365,0.32294440269470215,-1.494340419769287
1783080807500773400,4.4537734375,-8.308722496032715,-0.3299133777618408,-1.9405202865600586
1783080807520623000,4.473623046875,-8.351981163024902,-1.0469322204589844,-1.5050286054611206
1783080807540472600,4.49347265625,-8.708918571472168,-1.3728554248809814,-1.209851861000061
1783080807560515000,4.51351513671875,-10.062679290771484,-2.237131357192993,-1.9722089767456055
1783080807580365000,4.533364990234375,-9.95397663116455,-2.372199535369873,-1.9200499057769775
1783080807600022300,4.553022216796875,-9.817021369934082,-2.9722723960876465,-1.2941725254058838
1783080807619872000,4.5728720703125,-8.743813514709473,-2.687455177307129,-0.4724943935871124
1783080807639914000,4.5929140625,-7.465753555297852,-2.3186967372894287,-0.39109647274017334
1783080807659764000,4.612763916015625,-6.860848426818848,-1.949884295463562,-0.8395169377326965
1783080807679421400,4.63242138671875,-5.963071823120117,-1.2307014465332031,-1.4254870414733887
1783080807699271000,4.65227099609375,-5.631607532501221,0.044500112533569336,-1.5644302368164062
1783080807719313200,4.672313232421875,-3.3185033798217773,2.975587844848633,-1.2907683849334717
1783080807739163100,4.6921630859375,0.6847152709960938,6.745006561279297,-2.8141629695892334
1783080807759012900,4.712012939453125,7.444626808166504,7.179055213928223,-2.5552666187286377
1783080807778670300,4.73167041015625,13.543145179748535,3.2056362628936768,1.0646963119506836
1783080807798519800,4.751519775390625,27.34724998474121,-3.5760560035705566,7.041431427001953
1783080807818369300,4.771369384765625,41.98102569580078,-5.780630588531494,6.081136703491211
1783080807838411500,4.79141162109375,33.74785232543945,-1.5485618114471436,3.076378107070923
1783080807858261500,4.811261474609375,14.55776596069336,2.0277886390686035,1.5298893451690674
1783080807877919000,4.8309189453125,-1.8776254653930664,4.502610206604004,1.8109025955200195
1783080807897768400,4.8507685546875,-7.610507965087891,3.9236693382263184,-1.425447702407837
1783080807917618000,4.870617919921875,-6.490137577056885,2.4844510555267334,-2.528498649597168
1783080807937660200,4.89066015625,-5.7158403396606445,1.0156428813934326,-2.0777339935302734
1783080807957317600,4.910317626953125,-6.686595439910889,0.7354799509048462,-1.7288386821746826
1783080807977167000,4.9301669921875,-8.51041030883789,0.3832918405532837,-1.844280481338501
1783080807997209600,4.950209716796875,-9.792646408081055,0.24175560474395752,-2.0020129680633545
1783080808016866800,4.96986669921875,-11.0184326171875,0.09984278678894043,-1.7893588542938232
1783080808036909000,4.989908935546875,-11.742120742797852,-0.14560449123382568,-1.2617324590682983
1783080808056566300,5.009566162109375,-11.06645393371582,-0.6639049053192139,-0.5875802040100098
1783080808076416000,5.029416015625,-9.422975540161133,-1.0880101919174194,0.029198527336120605
1783080808096265500,5.049265380859375,-8.416179656982422,-1.610532522201538,0.07285994291305542
1783080808116308000,5.069307861328125,-8.456563949584961,-1.8437891006469727,-0.0966264009475708
1783080808136157700,5.08915771484375,-8.500588417053223,-2.0074992179870605,-0.15151917934417725
1783080808155815200,5.108815185546875,-8.247659683227539,-2.032514810562134,0.0023488998413085938
1783080808175664600,5.12866455078125,-6.818293571472168,-1.872175693511963,0.5515633821487427
1783080808195514400,5.148514404296875,-4.53892183303833,-1.1374526023864746,1.2356928586959839
1783080808215556600,5.168556640625,-2.6868162155151367,0.0706174373626709,1.3663674592971802
1783080808235406600,5.188406494140625,-0.4933185577392578,3.5067880153656006,-0.24156486988067627
1783080808255063800,5.208063720703125,7.123732566833496,9.146465301513672,-2.819857597351074
1783080808275106000,5.22810595703125,16.477386474609375,8.186037063598633,1.395743727684021
1783080808294763300,5.24776318359375,24.214744567871094,1.939277172088623,10.358307838439941
1783080808314766800,5.267766845703125,31.638538360595703,-2.4510419368743896,11.31943416595459
1783080808334655500,5.287655517578125,25.186744689941406,-0.8495602607727051,8.530082702636719
1783080808354351000,5.30735107421875,11.973689079284668,3.087158679962158,4.316471099853516
1783080808374200800,5.327200927734375,7.68178653717041,3.615542411804199,0.4972991943359375
1783080808394050300,5.34705029296875,7.53037166595459,3.497519016265869,-1.3778541088104248
1783080808414054100,5.36705419921875,2.985489845275879,1.514017105102539,-0.4756709337234497
1783080808433904000,5.386904052734375,-0.2912750244140625,-0.6733160018920898,-1.6698524951934814
1783080808453561300,5.406561279296875,-2.320775032043457,-1.3715102672576904,-2.1118459701538086
1783080808473411000,5.4264111328125,-6.471563816070557,-1.3346824645996094,-3.0658130645751953
1783080808493260500,5.446260498046875,-11.932609558105469,-1.2424747943878174,-3.248284339904785
1783080808513302800,5.466302734375,-15.756452560424805,-1.422762155532837,-2.7705864906311035
1783080808532960000,5.4859599609375,-16.27812385559082,-2.5576276779174805,-1.9289391040802002
1783080808552809700,5.505809814453125,-14.2366943359375,-3.7568531036376953,-1.2962679862976074
1783080808572659500,5.525659423828125,-11.328814506530762,-4.618015766143799,-1.110798954963684
1783080808592509000,5.545509033203125,-9.425410270690918,-4.776837348937988,-1.3829631805419922
1783080808612551400,5.565551513671875,-8.97026538848877,-4.669084548950195,-1.3462331295013428
1783080808652058600,5.60505859375,-6.614218711853027,-4.442678928375244,-1.4048527479171753
1783080808672100900,5.625100830078125,-7.348550319671631,-4.637271881103516,-0.9761762619018555
1783080808691758000,5.644758056640625,-7.105545997619629,-4.969449996948242,-0.4926406443119049
1783080808711800300,5.66480029296875,-5.250962734222412,-5.1533098220825195,-0.11424702405929565
1783080808731650000,5.684650146484375,-3.319396495819092,-3.9009644985198975,-0.42447417974472046
1783080808751307500,5.7043076171875,-3.2574400901794434,-2.316235065460205,-0.3820660710334778
1783080808771157000,5.724156982421875,0.17216205596923828,0.7862634658813477,-1.1296017169952393
1783080808791006700,5.7440068359375,6.304327011108398,6.229403972625732,-3.157170295715332
1783080808810859000,5.76385888671875,10.122127532958984,8.888729095458984,-1.1631455421447754
1783080808830946800,5.78394677734375,16.11310577392578,9.145614624023438,2.918278932571411
1783080808850814500,5.803814453125,25.289216995239258,6.8520731925964355,3.8673653602600098
1783080808870644000,5.82364404296875,29.405746459960938,6.229488372802734,3.554567575454712
1783080808910279700,5.86327978515625,18.369747161865234,6.5076799392700195,-0.06012478470802307
1783080808929940700,5.882940673828125,8.364044189453125,4.2174153327941895,-0.39228591322898865
1783080808949812700,5.902812744140625,-1.2076778411865234,1.1356921195983887,-0.6422436833381653
1783080808969853200,5.922853271484375,-4.9436516761779785,-1.1316938400268555,-1.8503164052963257
1783080808989682700,5.9426826171875,-3.0889358520507812,-1.7940044403076172,-1.8849852085113525
1783080809009342700,5.9623427734375,-4.189892292022705,-2.315762519836426,-0.3894977271556854
1783080809029214200,5.982214111328125,-10.00222396850586,-3.160794258117676,-1.2570465803146362
1783080809049254400,6.00225439453125,-14.859400749206543,-3.3492817878723145,-2.206498146057129
1783080809069083400,6.02208349609375,-15.73758602142334,-3.614201545715332,-1.3599497079849243
1783080809088743200,6.0417431640625,-13.946799278259277,-4.053866386413574,-0.7555195093154907
1783080809108614400,6.061614501953125,-11.278329849243164,-4.739206790924072,-0.183177649974823
1783080809128654000,6.081654052734375,-8.630892753601074,-5.412689208984375,0.3004365861415863
1783080809148482800,6.10148291015625,-6.73975944519043,-5.5530877113342285,0.23162400722503662
1783080809168142600,6.121142578125,-6.7799787521362305,-5.560446262359619,0.13513702154159546
1783080809187994000,6.140994140625,-7.200076580047607,-5.365787506103516,-0.18358969688415527
1783080809207845000,6.16084521484375,-7.230004787445068,-4.873501777648926,-0.42577722668647766
1783080809227715600,6.180715576171875,-7.134696960449219,-4.444445610046387,-0.6483516693115234
1783080809247755000,6.200755126953125,-6.630746841430664,-3.8036534786224365,-1.0375490188598633
1783080809267583200,6.220583251953125,-6.009705066680908,-3.473616123199463,-0.9915050268173218
1783080809287242500,6.240242431640625,-4.5170063972473145,-2.6893482208251953,-0.7210700511932373
1783080809307093800,6.26009375,-2.8586111068725586,-0.3536670207977295,-2.051854133605957
1783080809326964200,6.279964111328125,0.24507904052734375,3.099921703338623,-2.9073379039764404
1783080809346984200,6.299984130859375,5.829532623291016,5.656430244445801,0.3907819092273712
1783080809366647000,6.31964697265625,13.305852890014648,5.3780012130737305,4.5196051597595215
1783080809386551300,6.33955126953125,17.735015869140625,5.424406051635742,4.780034065246582
1783080809406552300,6.35955224609375,17.300888061523438,4.93855619430542,6.064540386199951
1783080809426399700,6.379399658203125,19.827009201049805,5.568994998931885,5.750555515289307
1783080809446232600,6.399232666015625,23.529701232910156,5.912144184112549,2.8622515201568604
1783080809465926400,6.418926513671875,19.115921020507812,5.084702491760254,-0.7799609899520874
1783080809485739500,6.438739501953125,9.716668128967285,3.9124908447265625,-2.3596622943878174
1783080809505610200,6.4586103515625,1.8813161849975586,1.7738940715789795,-0.34809476137161255
1783080809525650000,6.47864990234375,-2.812863826751709,-0.23477602005004883,0.558260977268219
1783080809545478400,6.498478515625,-2.101104736328125,-1.2591044902801514,-0.1494179368019104
1783080809565157600,6.51815771484375,-0.9299993515014648,-1.643821358680725,0.0037421584129333496
1783080809585178400,6.538178466796875,-3.602301597595215,-1.7010082006454468,-0.1667378544807434
1783080809604857300,6.557857421875,-7.765110969543457,-1.5287957191467285,-0.620200514793396
1783080809624897300,6.577897216796875,-10.937549591064453,-1.687756061553955,-0.9536755084991455
1783080809644726300,6.597726318359375,-11.957155227661133,-2.0812954902648926,-0.852912425994873
1783080809664386000,6.617385986328125,-11.873289108276367,-2.5649545192718506,-0.4679790139198303
1783080809684237300,6.6372373046875,-10.91110897064209,-3.167757511138916,-0.5603076219558716
1783080809704108000,6.65710791015625,-9.25781536102295,-3.599888563156128,-0.5209282636642456
1783080809724147700,6.677147705078125,-8.399351119995117,-3.8803586959838867,-0.3132588267326355
1783080809743976200,6.69697607421875,-8.538991928100586,-4.048736572265625,-0.2730379104614258
1783080809763635700,6.7166357421875,-8.472288131713867,-3.964254140853882,-0.3367322087287903
1783080809783487000,6.736487060546875,-8.234761238098145,-3.4600136280059814,-0.7264469861984253
1783080809803357400,6.756357421875,-8.525859832763672,-2.9976553916931152,-0.9272991418838501
1783080809823377700,6.776377685546875,-8.699430465698242,-2.51481556892395,-1.2848167419433594
1783080809843036400,6.796036376953125,-7.352245807647705,-1.4773857593536377,-1.416654109954834
1783080809862887400,6.815887451171875,-3.3651790618896484,1.0023417472839355,-1.4037892818450928
1783080809882738200,6.83573828125,1.0794191360473633,3.7838470935821533,-0.7150092124938965
1783080809902608100,6.855608154296875,5.253936767578125,4.226763725280762,0.8270633220672607
1783080809922628000,6.875628173828125,11.301177978515625,2.5526013374328613,4.207161903381348
1783080809942286600,6.89528662109375,20.929885864257812,0.6690835952758789,6.3685197830200195
1783080809962377200,6.915377197265625,26.720779418945312,1.2859723567962646,4.882312774658203
1783080809982274300,6.9352744140625,21.837108612060547,4.264162063598633,2.522934675216675
1783080810001906400,6.954906494140625,16.540775299072266,7.027324676513672,-0.9151961207389832
1783080810021895400,6.9748955078125,15.96058177947998,6.330384254455566,-4.2161335945129395
1783080810041723600,6.9947236328125,15.118064880371094,2.6882524490356445,-1.444307804107666
1783080810061383000,7.0143828125,7.017126083374023,1.358630895614624,0.8761357069015503
1783080810081234000,7.03423388671875,-2.2326412200927734,1.6937909126281738,0.024145185947418213
1783080810101104400,7.0541044921875,-5.049449443817139,1.9326913356781006,-1.1279208660125732
1783080810121124400,7.074124267578125,-2.6225624084472656,1.230630874633789,-1.6151111125946045
1783080810140783000,7.093783203125,-3.2028894424438477,0.3502516746520996,-2.3352560997009277
1783080810160653600,7.113653564453125,-8.103779792785645,-0.3364267349243164,-2.546473503112793
1783080810180673500,7.133673583984375,-11.645013809204102,-0.9187636375427246,-2.378096103668213
1783080810200352000,7.15335205078125,-12.505216598510742,-1.4356380701065063,-1.7682487964630127
1783080810220372200,7.173372314453125,-11.348651885986328,-1.9798882007598877,-1.0718592405319214
1783080810240050700,7.19305078125,-9.287059783935547,-2.679462432861328,-0.3302178382873535
1783080810260090400,7.21309033203125,-8.164386749267578,-3.337454319000244,-0.16736435890197754
1783080810279918800,7.2329189453125,-8.662378311157227,-3.759000778198242,-0.04511868953704834
1783080810299598000,7.25259814453125,-8.503958702087402,-3.7841062545776367,0.0746757984161377
1783080810319637800,7.2726376953125,-7.743339538574219,-3.643381357192993,-0.23845863342285156
1783080810339486000,7.29248583984375,-7.474152088165283,-3.32441782951355,-0.35271692276000977
1783080810359319000,7.312319091796875,-7.488406181335449,-2.761014223098755,-0.7372754812240601
1783080810379032300,7.3320322265625,-5.791788101196289,-2.244852066040039,-1.4498499631881714
