time,seconds_elapsed,z,y,x
1783080811123582500,0.12658251953125,0.23462431132793427,0.665789783000946,-0.3941475450992584
1783080811143239700,0.14623974609375,0.15472954511642456,0.04114580899477005,-0.7444861531257629
1783080811163063600,0.1660634765625,-0.1760348230600357,0.3298322558403015,-1.3195953369140625
1783080811182925800,0.18592578125,-0.31917962431907654,1.0626004934310913,-1.9197382926940918
1783080811202759200,0.20575927734375,-0.46032705903053284,1.4161348342895508,-1.9085530042648315
1783080811222784000,0.225783935546875,-0.7309040427207947,0.6759097576141357,-0.9484841227531433
1783080811242481400,0.2454814453125,-0.8564719557762146,-0.2660495936870575,0.19907113909721375
1783080811262332400,0.26533251953125,-0.7048050761222839,-0.6174534559249878,0.9046751260757446
1783080811282183000,0.285182861328125,-0.4251733422279358,-0.4071970283985138,1.03730046749115
1783080811302049000,0.305049072265625,-0.3532680571079254,-0.30120328068733215,0.8349003791809082
1783080811322035000,0.325034912109375,-0.5173186659812927,-0.582832396030426,0.6245108246803284
1783080811341731800,0.34473193359375,-0.679771363735199,-0.8342345952987671,0.6165213584899902
1783080811361598200,0.36459814453125,-0.8159919381141663,-0.892824113368988,0.7347655892372131
1783080811381580300,0.384580322265625,-0.9262467622756958,-0.876845121383667,0.8492814302444458
1783080811401259000,0.404259033203125,-1.0338383913040161,-0.9221188426017761,0.9701888561248779
1783080811421298700,0.424298583984375,-1.1350383758544922,-0.7862977385520935,1.162335753440857
1783080811441127700,0.444127685546875,-1.2618048191070557,-0.554602861404419,1.3791168928146362
1783080811460791000,0.463791015625,-1.3012195825576782,-0.4764391779899597,1.5548853874206543
1783080811480680200,0.48368017578125,-1.2197269201278687,-0.2005358785390854,1.4350433349609375
1783080811500546300,0.50354638671875,-1.148354172706604,0.3873564898967743,1.0607362985610962
1783080811520547600,0.523547607421875,-1.1084067821502686,1.2398337125778198,0.8546077609062195
1783080811540395500,0.5433955078125,-0.9198551774024963,1.6535555124282837,0.6394245028495789
1783080811560244000,0.563243896484375,-0.5897566080093384,1.1988210678100586,0.04034686088562012
1783080811580073200,0.5830732421875,-0.41345545649528503,0.4677838981151581,-0.1502021700143814
1783080811599753000,0.6027529296875,-0.03328948840498924,-0.010386320762336254,0.013715269044041634
1783080811619774200,0.622774169921875,0.4581965208053589,-0.3693801760673523,-0.22690115869045258
1783080811639434000,0.64243408203125,0.6941524147987366,-0.5679186582565308,-0.6070671081542969
1783080811659285500,0.662285400390625,0.763927161693573,-1.006274700164795,-0.9404946565628052
1783080811679136800,0.68213671875,0.7351650595664978,-1.507880687713623,-0.7940208911895752
1783080811699007200,0.70200732421875,0.6014744639396667,-1.762878179550171,-0.6352965831756592
1783080811719031300,0.72203125,0.3404848873615265,-1.5654048919677734,-1.2162647247314453
1783080811738727700,0.741727783203125,-0.001331579522229731,-1.2660658359527588,-1.9836540222167969
1783080811758578200,0.761578125,-0.1957421898841858,-1.030243158340454,-1.9804582595825195
1783080811778428200,0.78142822265625,-0.21651484072208405,-0.6302366256713867,-1.1155973672866821
1783080811798294000,0.8012939453125,-0.21118851006031036,-0.6153228878974915,-0.2167811542749405
1783080811818295000,0.821294921875,-0.228232741355896,-0.7969503402709961,0.05845634266734123
1783080811838142700,0.841142822265625,-0.3399522602558136,-0.5759081840515137,-0.08096003532409668
1783080811857971500,0.860971435546875,-0.3910849094390869,-0.07483477145433426,-0.3334275186061859
1783080811877631200,0.88063134765625,-0.40333545207977295,0.42144492268562317,-0.5012065172195435
1783080811897502500,0.90050244140625,-0.4763059914112091,0.6530066132545471,-0.4095938801765442
1783080811917523000,0.92052294921875,-0.5380913019180298,0.552871823310852,-0.154995858669281
1783080811937201700,0.94020166015625,-0.5348954796791077,0.3532680571079254,0.12823110818862915
1783080811957222400,0.960222412109375,-0.47896915674209595,0.3308975100517273,0.350871205329895
1783080811976901000,0.979901123046875,-0.3532680571079254,0.524775505065918,0.4424838721752167
1783080811996940800,0.99994091796875,-0.23835274577140808,0.5805686712265015,0.41958072781562805
1783080812016769800,1.019769775390625,-0.15579481422901154,0.49761128425598145,0.4648544192314148
1783080812036449000,1.039448974609375,-0.10466215014457703,0.6045371294021606,0.5685844421386719
1783080812056489000,1.059489013671875,0.03488738462328911,1.214267373085022,0.7347655892372131
1783080812096238600,1.099238525390625,0.13981585204601288,1.6226627826690674,0.6554034352302551
1783080812116082400,1.11908251953125,-0.36551859974861145,0.6173202991485596,0.22090904414653778
1783080812155730000,1.15872998046875,0.2701774835586548,0.24354590475559235,-1.0804436206817627
1783080812175579600,1.17857958984375,0.4294344186782837,0.20253324508666992,-0.48682549595832825
1783080812195429400,1.198429443359375,0.32450592517852783,-0.6366282105445862,0.32051119208335876
1783080812215279000,1.218279052734375,0.10199899226427078,-1.9663435220718384,-0.0985368862748146
1783080812235128800,1.23812890625,-0.013582111336290836,-1.9290592670440674,-2.10296368598938
1783080812254786300,1.257786376953125,-0.24421168863773346,-0.26818013191223145,-3.5177669525146484
1783080812274828000,1.277828125,-0.4725775718688965,1.4257222414016724,-2.430931568145752
1783080812294485500,1.297485595703125,-0.6504766345024109,1.3948296308517456,0.005193160381168127
1783080812314527500,1.317527587890625,-0.5988113284111023,0.1279647946357727,1.6484954357147217
1783080812334377200,1.337377197265625,-0.25912538170814514,-0.8257125020027161,1.8743313550949097
1783080812354034700,1.35703466796875,0.11158636957406998,-0.8368977308273315,1.261405348777771
1783080812373884200,1.37688427734375,0.1579253375530243,-0.43808966875076294,0.6676539778709412
1783080812393733600,1.396733642578125,-0.017310533672571182,-0.15952323377132416,0.44301652908325195
1783080812413776000,1.41677587890625,-0.1904158741235733,-0.012516847811639309,0.41105860471725464
1783080812433433000,1.43643310546875,-0.18775272369384766,0.3250385820865631,0.30293434858322144
1783080812453282800,1.45628271484375,-0.09454214572906494,0.6865624189376831,0.061652131378650665
1783080812473132300,1.47613232421875,-0.04234423115849495,0.77870774269104,-0.02396843209862709
1783080812492982000,1.49598193359375,-0.007190529722720385,0.5189165472984314,0.074435293674469
1783080812513024300,1.516024169921875,0.10892320424318314,0.12157320976257324,0.15752586722373962
1783080812532681500,1.535681396484375,0.35593122243881226,-0.15899059176445007,0.319445937871933
1783080812552531200,1.55553125,0.6275734305381775,-0.17816534638404846,0.6815024018287659
1783080812572380700,1.575380615234375,0.5945502519607544,-0.204264298081398,0.8077361583709717
1783080812592230400,1.59523046875,0.38416069746017456,-0.18775272369384766,0.6026729345321655
1783080812612272600,1.615272705078125,0.2786996066570282,0.32770171761512756,0.6601971387863159
1783080812631930000,1.63493017578125,0.002929474925622344,0.29041749238967896,0.8487488031387329
1783080812651779800,1.65477978515625,-0.13022847473621368,-0.05566002428531647,0.45686495304107666
1783080812671629300,1.67462939453125,0.0774979293346405,-0.17337165772914886,-0.408528596162796
1783080812691479000,1.69447900390625,0.45926177501678467,-0.6994787454605103,-1.413871169090271
1783080812711521300,1.714521240234375,0.5450155138969421,-0.7788408994674683,-1.3121384382247925
1783080812731371300,1.734371337890625,0.060986343771219254,-1.1041457653045654,-0.6970819234848022
1783080812751028700,1.75402880859375,-0.30852699279785156,-1.391234278678894,-1.2386353015899658
1783080812770878200,1.773878173828125,-0.5466133952140808,-0.7229145169258118,-2.7264091968536377
1783080812790728000,1.79372802734375,-0.6062681674957275,0.447011262178421,-3.141329288482666
1783080812810770200,1.813770263671875,-0.5013396739959717,0.871918261051178,-1.84889817237854
1783080812830620200,1.8336201171875,-0.34634384512901306,0.18389113247394562,-0.10439583659172058
1783080812850470000,1.853469970703125,-0.16911059617996216,-0.7490134835243225,0.7251782417297363
1783080812870127400,1.87312744140625,0.03169159218668938,-0.9961546659469604,0.5122586488723755
1783080812889976800,1.892976806640625,0.04554001986980438,-0.4876244366168976,-0.1693769246339798
1783080812910019000,1.91301904296875,-0.11265163123607635,0.05659212917089462,-0.4894886314868927
1783080812929868800,1.932868896484375,-0.2234390527009964,0.19667430222034454,-0.30306750535964966
1783080812949718800,1.95271875,-0.22130851447582245,0.08855003863573074,0.07709845900535583
1783080812969568500,1.972568603515625,-0.15632744133472443,0.04860265180468559,0.3897533416748047
1783080812989418200,1.992418212890625,-0.08442214131355286,0.03635212033987045,0.5536707639694214
1783080813029118000,2.032117919921875,0.021038956940174103,-0.439687579870224,0.818388819694519
1783080813048967700,2.0519677734375,0.007723161485046148,-0.3826959729194641,0.860466718673706
1783080813068817400,2.0718173828125,-0.010386320762336254,-0.1531316488981247,0.8141277432441711
1783080813088667100,2.091667236328125,-0.023169483989477158,-0.1573926955461502,0.6980140209197998
1783080813108516900,2.111516845703125,-0.1249021589756012,-0.016777902841567993,0.6703171730041504
1783080813128366600,2.13136669921875,-0.017310533672571182,0.9560741186141968,1.1266494989395142
1783080813148216300,2.15121630859375,-0.12809795141220093,1.6057517528533936,1.5980286598205566
1783080813168066000,2.171066162109375,-0.46991443634033203,0.10399636626243591,0.860999345779419
1783080813187915800,2.190915771484375,-0.12117373943328857,-1.2021499872207642,-1.2785826921463013
1783080813207765500,2.210765625,0.3159838318824768,0.20945745706558228,-2.5220117568969727
1783080813227615200,2.230615234375,0.42677125334739685,1.2579431533813477,-1.693369746208191
1783080813247465000,2.25046484375,0.2564622163772583,-0.11584742367267609,0.29334697127342224
1783080813267314700,2.270314697265625,0.2372874766588211,-2.536659002304077,1.0468878746032715
1783080813287164400,2.290164306640625,0.3388870060443878,-3.0031113624572754,-0.10226531326770782
1783080813307014100,2.31001416015625,0.0684431865811348,-1.0675272941589355,-2.0555593967437744
1783080813326864000,2.32986376953125,-0.6243776679039001,1.2675305604934692,-2.8569040298461914
1783080813346713600,2.349713623046875,-0.9992172718048096,2.0775303840637207,-1.6667381525039673
1783080813366563300,2.369563232421875,-0.8564719557762146,1.1524821519851685,0.2768353819847107
1783080813386413000,2.3894130859375,-0.5514070987701416,-0.30599698424339294,1.3658010959625244
1783080813406262800,2.4092626953125,-0.2829606533050537,-0.8997483253479004,1.1639336347579956
1783080813426112500,2.429112548828125,-0.2655169665813446,-0.5439502596855164,0.31731539964675903
1783080813445962200,2.448962158203125,-0.5098618268966675,0.2504701018333435,-0.3105243444442749
1783080813465812000,2.46881201171875,-0.6803039908409119,0.6817687153816223,-0.37923386693000793
1783080813485661700,2.48866162109375,-0.6408892273902893,0.6775076985359192,-0.0708400309085846
1783080813505511400,2.508511474609375,-0.3964112401008606,0.4763059914112091,0.3338269889354706
1783080813525361200,2.528361083984375,-0.07590003311634064,0.1332911103963852,0.655936062335968
1783080813545211000,2.5482109375,0.23835274577140808,-0.23355905711650848,0.7954856157302856
1783080813565060600,2.568060546875,0.4906870722770691,-0.6115944981575012,0.7752456068992615
1783080813584910300,2.587910400390625,0.5466133952140808,-0.9918935894966125,0.7464835047721863
1783080813604760000,2.607760009765625,0.48269757628440857,-0.8752472400665283,0.7411571741104126
1783080813624609800,2.62760986328125,0.44221755862236023,-0.4018706977367401,0.7395592927932739
1783080813644459500,2.64745947265625,0.46352285146713257,-0.14567480981349945,0.6415550112724304
1783080813664309200,2.667309326171875,0.4331628382205963,-0.16538217663764954,0.5282375812530518
1783080813684159000,2.687158935546875,0.2984069883823395,0.08375635743141174,0.7001445293426514
1783080813703816200,2.706816162109375,0.1201084777712822,1.0700572729110718,1.131975769996643
1783080813723665700,2.726665771484375,-0.08016108721494675,1.53650963306427,0.622380256652832
1783080813743515100,2.74651513671875,0.325571209192276,0.6775076985359192,-0.8430230021476746
1783080813763557000,2.76655712890625,0.9816404581069946,-0.15472954511642456,-1.5800522565841675
1783080813783214600,2.786214599609375,1.239966869354248,-0.6281060576438904,-0.8174566626548767
1783080813803064000,2.80606396484375,0.8044071793556213,-1.0094704627990723,0.6767086982727051
1783080813822913800,2.825913818359375,0.3585943877696991,-1.2335753440856934,0.5659213066101074
1783080813842763300,2.84576318359375,0.21758009493350983,-0.6595313549041748,-1.5464965105056763
1783080813862805500,2.865805419921875,-0.09773793816566467,0.24833959341049194,-2.8451859951019287
1783080813882655500,2.885655517578125,-0.42144492268562317,1.0631331205368042,-2.0054919719696045
1783080813902312700,2.905312744140625,-0.40280282497406006,1.2052125930786133,-0.004793686326593161
1783080813922162400,2.925162353515625,-0.29201540350914,0.6189181804656982,1.4989590644836426
1783080813942012000,2.945011962890625,-0.13555480539798737,-0.13289164006710052,1.788577675819397
1783080813962054100,2.96505419921875,0.006657897960394621,-0.21065588295459747,1.3807148933410645
1783080813981711600,2.984711669921875,-0.0354200154542923,0.2707101106643677,0.9861677885055542
1783080814001561000,3.00456103515625,-0.110521100461483,0.6274402737617493,0.8322372436523438
1783080814021603300,3.024603271484375,-0.05299686640501022,0.7446193099021912,0.693220317363739
1783080814041260500,3.044260498046875,0.02210422046482563,0.45606598258018494,0.5414202213287354
1783080814061302800,3.064302734375,-0.08655267208814621,-0.1531316488981247,0.5063996911048889
1783080814080960300,3.083960205078125,0.03009369783103466,0.14767217636108398,0.4680502116680145
1783080814100809700,3.103809814453125,0.2575274705886841,0.7366297841072083,0.6378266215324402
1783080814120659500,3.123659423828125,0.42677125334739685,0.5306344628334045,1.0053426027297974
1783080814140509000,3.143509033203125,0.5231776237487793,0.14820480346679688,1.1857715845108032
1783080814160551400,3.163551513671875,0.4523375630378723,-0.040213704109191895,1.2092074155807495
1783080814180208600,3.183208740234375,0.31971225142478943,-0.3219759464263916,1.2763190269470215
1783080814200096800,3.2030966796875,0.17070849239826202,-0.4295675754547119,1.338104248046875
1783080814219907800,3.222907958984375,0.09028109163045883,-0.04713791608810425,1.2821779251098633
1783080814239796000,3.2427958984375,0.14514216780662537,0.6615287065505981,1.236371636390686
1783080814259799800,3.2627998046875,-0.03328948840498924,0.5109270811080933,1.4334453344345093
1783080814279495700,3.28249560546875,0.2090579867362976,-0.730371356010437,0.860999345779419
1783080814299499500,3.30249951171875,0.7522093057632446,-0.9972199201583862,-0.4932170510292053
1783080814319156700,3.32215673828125,0.6275734305381775,-0.566853404045105,-0.9735178351402283
1783080814339199000,3.342198974609375,0.37137752771377563,-0.013582111336290836,-0.5028044581413269
1783080814359049000,3.362049072265625,0.25060325860977173,0.09867004305124283,-0.045806337147951126
1783080814378706200,3.3817060546875,0.28189539909362793,-0.7458177208900452,-0.4042675495147705
1783080814398555600,3.4015556640625,0.15899059176445007,-0.8550072312355042,-1.1518163681030273
1783080814418405400,3.4214052734375,-0.4763059914112091,0.28988486528396606,-1.1108036041259766
1783080814438447600,3.441447509765625,-0.9938910007476807,1.1956253051757812,-0.20879167318344116
1783080814458104800,3.461104736328125,-0.972053050994873,1.2526168823242188,0.668186604976654
1783080814477954600,3.48095458984375,-0.6909566521644592,0.6301034688949585,0.9771130681037903
1783080814497804000,3.500803955078125,-0.41771650314331055,0.04061317816376686,0.8008119463920593
1783080814517846300,3.52084619140625,-0.2930806577205658,0.04114580899477005,0.45793020725250244
1783080814537696300,3.5406962890625,-0.3719101548194885,0.18389113247394562,0.19534271955490112
1783080814557353500,3.560353515625,-0.4198470413684845,0.2680469751358032,0.08988162130117416
1783080814577395700,3.580395751953125,-0.36179015040397644,0.21904483437538147,0.11811110377311707
1783080814597053000,3.600052978515625,-0.21971063315868378,0.10559425503015518,0.1117195263504982
1783080814617095200,3.62009521484375,-0.08442214131355286,0.07257108390331268,0.140481635928154
1783080814636945000,3.63994482421875,-0.08335687965154648,-0.008255792781710625,0.3178480267524719
1783080814656602400,3.659602294921875,-0.10253162682056427,0.07097318768501282,0.5494097471237183
1783080814676451800,3.679451904296875,-0.1296958476305008,0.2227732539176941,0.7885614037513733
1783080814696301600,3.699301513671875,-0.13022847473621368,0.314918577671051,0.9110667109489441
1783080814716343600,3.719343505859375,-0.10306425392627716,0.3644533157348633,0.9563404321670532
1783080814736193500,3.739193603515625,-0.09347688406705856,0.48323023319244385,0.8993488550186157
1783080814755851000,3.75885107421875,-0.21651484072208405,0.6551371216773987,0.7395592927932739
1783080814775700500,3.778700439453125,-0.36498594284057617,1.034903645515442,0.7406245470046997
1783080814795550000,3.798550048828125,-0.3021354079246521,1.410275936126709,1.0596710443496704
1783080814815592200,3.81859228515625,-0.0732368752360344,0.48323023319244385,0.44781020283699036
1783080814835442000,3.83844189453125,0.44115230441093445,-0.5732449889183044,-1.0761826038360596
1783080814855292000,3.8582919921875,0.8255793452262878,-0.47963494062423706,-1.4575469493865967
1783080814874949400,3.877949462890625,1.046621561050415,-0.5089297294616699,-0.539422869682312
1783080814894798800,3.897798828125,1.0295772552490234,-1.2580763101577759,-0.011717899702489376
1783080814914840800,3.9178408203125,0.8154593110084534,-1.4993585348129272,-0.6816355586051941
1783080814934690800,3.93769091796875,0.44488072395324707,-1.379516363143921,-1.7386434078216553
1783080814954348000,3.95734814453125,-0.23835274577140808,-0.6600639820098877,-2.1614198684692383
1783080814974390300,3.977390380859375,-0.7703187465667725,0.42197754979133606,-1.4287848472595215
1783080814994047500,3.997047607421875,-0.955008864402771,0.7286403179168701,-0.0516652874648571
1783080815014089500,4.01708935546875,-0.7708513736724854,0.28668907284736633,0.7667235136032104
1783080815033939500,4.036939453125,-0.46032705903053284,-0.18455693125724792,0.7155908346176147
1783080815053596700,4.0565966796875,-0.4145207107067108,-0.40932756662368774,0.20493009686470032
1783080815073446100,4.076446044921875,-0.5189165472984314,-0.18775272369384766,-0.3813643753528595
1783080815093295900,4.0962958984375,-0.6014744639396667,0.08002793043851852,-0.5974797606468201
1783080815113338000,4.116338134765625,-0.5780386924743652,0.02996053919196129,-0.5209138989448547
1783080815132995300,4.135995361328125,-0.3628554344177246,0.12689952552318573,-0.31158962845802307
1783080815152844800,4.1558447265625,-0.12596742808818817,0.13595427572727203,0.04034686088562012
1783080815172694500,4.175694580078125,0.0002663159102667123,0.15512901544570923,0.4083954393863678
1783080815192544300,4.195544189453125,0.0354200154542923,0.12689952552318573,0.5829655528068542
1783080815212586500,4.21558642578125,0.16911059617996216,0.16791218519210815,0.4930838942527771
1783080815232243700,4.23524365234375,0.3964112401008606,0.19560903310775757,0.3556649088859558
1783080815252131800,4.2551318359375,0.6808366179466248,0.08215846121311188,0.3849596381187439
1783080815271981600,4.274981689453125,0.9768467545509338,-0.21065588295459747,0.5584644675254822
1783080815291831300,4.294831298828125,1.063665747642517,-0.6728471517562866,0.4510059952735901
1783080815311835100,4.314835205078125,0.591354489326477,-0.3400854170322418,0.11331742256879807
1783080815331492400,4.334492431640625,-0.010918952524662018,0.9779120087623596,0.49095338582992554
1783080815351534600,4.35453466796875,-0.08761793375015259,0.6380929350852966,0.7150582075119019
1783080815371191800,4.37419189453125,0.07696529477834702,-0.4066644012928009,-0.2966759204864502
1783080815391041500,4.39404150390625,0.11744531989097595,0.40333545207977295,-1.4447637796401978
1783080815411083800,4.414083740234375,0.1669800728559494,1.1056104898452759,-2.0981698036193848
1783080815430741000,4.433740966796875,0.4209122955799103,0.49761128425598145,-1.8536919355392456
1783080815450783200,4.453783203125,0.24953800439834595,-0.5190497040748596,-1.5076143741607666
1783080815470440400,4.4734404296875,0.12650005519390106,-0.44661179184913635,-1.8504960536956787
1783080815490482700,4.493482666015625,0.27550381422042847,0.411857545375824,-2.2929799556732178
1783080815510332400,4.51333251953125,0.08016108721494675,0.7227813601493835,-2.2013673782348633
1783080815529990000,4.532989990234375,-0.16484954953193665,0.42677125334739685,-1.517734408378601
1783080815550032000,4.553031982421875,-0.1291632205247879,0.37510594725608826,-0.3254380524158478
1783080815569689000,4.572689208984375,0.007723161485046148,0.2872216999530792,0.6862961053848267
1783080815589731300,4.5927314453125,0.14460954070091248,-0.1201084777712822,1.0175931453704834
1783080815609581000,4.6125810546875,0.15100112557411194,-0.4013380706310272,0.7315698266029358
1783080815629431000,4.63243115234375,0.09294424951076508,-0.0050600022077560425,0.196940615773201
1783080815649280800,4.65228076171875,-0.0007989477599039674,0.35539859533309937,-0.07190529257059097
1783080815669130500,4.672130615234375,-0.13502216339111328,0.46405547857284546,0.03768370300531387
1783080815688980200,4.691980224609375,-0.2186453640460968,0.1897500902414322,0.3322291076183319
1783080815708830000,4.711829833984375,-0.22716747224330902,-0.105727419257164,0.49095338582992554
1783080815728679700,4.7316796875,-0.18295903503894806,-0.16591481864452362,0.48189863562583923
1783080815748529400,4.751529296875,-0.13129374384880066,-0.19361166656017303,0.5755086541175842
1783080815768379100,4.771379150390625,-0.10626004636287689,-0.45619916915893555,0.7720498442649841
1783080815788229000,4.79122900390625,-0.08868319541215897,-0.4860265254974365,1.0511488914489746
1783080815808078600,4.81107861328125,-0.19307903945446014,0.10772478580474854,1.2592748403549194
1783080815827928300,4.83092822265625,-0.3628554344177246,0.3996070325374603,1.4611421823501587
1783080815847778300,4.8507783203125,-0.2893522381782532,0.45553335547447205,1.9297250509262085
1783080815867627800,4.870627685546875,0.06950845569372177,0.15725953876972198,2.155427932739258
1783080815887477500,4.8904775390625,0.1664474457502365,-0.4918854832649231,1.2896348237991333
1783080815907327200,4.9103271484375,-0.06684529036283493,-1.0025461912155151,-0.1699095517396927
1783080815927177000,4.930177001953125,-0.08921582996845245,-0.41944757103919983,-1.5092122554779053
1783080815947026700,4.950026611328125,-0.007190529722720385,0.3207775056362152,-2.122138261795044
1783080815966876400,4.96987646484375,0.06311687082052231,-0.1291632205247879,-1.540637493133545
1783080815986726100,4.98972607421875,-0.05938844755291939,-1.4631396532058716,-0.610262930393219
1783080816006575900,5.009575927734375,-0.12170637398958206,-1.7516928911209106,-0.631035566329956
1783080816026425600,5.029425537109375,0.003994738683104515,-0.7697861194610596,-2.0209383964538574
1783080816046275300,5.049275390625,-0.2420811653137207,0.27763432264328003,-2.962897777557373
1783080816066086400,5.06908642578125,-0.5940176248550415,0.8815056681632996,-1.9719361066818237
1783080816085974500,5.088974609375,-0.6589987277984619,0.6402234435081482,-0.12836426496505737
1783080816105824500,5.108824462890625,-0.5476786494255066,-0.10412952303886414,1.0676604509353638
1783080816125674200,5.12867431640625,-0.3639206886291504,-0.6147902607917786,1.131975769996643
1783080816145523700,5.148523681640625,-0.2559295892715454,-0.41944757103919983,0.617586612701416
1783080816165373400,5.16837353515625,-0.33728909492492676,-0.0018642114009708166,0.22676800191402435
1783080816185223200,5.18822314453125,-0.4763059914112091,0.13169321417808533,0.17084164917469025
1783080816205073000,5.208072998046875,-0.5189165472984314,0.09174583107233047,0.26884591579437256
1783080816224922600,5.227922607421875,-0.4539354741573334,0.0906805694103241,0.3466101586818695
1783080816244772400,5.2477724609375,-0.36125752329826355,0.2174469381570816,0.43769019842147827
1783080816264622000,5.2676220703125,-0.32770171761512756,0.37510594725608826,0.5579318404197693
1783080816284471800,5.287471923828125,-0.2420811653137207,0.3916175365447998,0.6729803085327148
1783080816304321500,5.307321533203125,0.12277163565158844,-0.1760348230600357,0.6804371476173401
1783080816324171300,5.327171142578125,0.43635863065719604,-0.6371608376502991,0.7613971829414368
1783080816344021000,5.34702099609375,0.3761712312698364,-0.3502054214477539,1.0404962301254272
1783080816363870700,5.36687060546875,0.2191779911518097,0.15725953876972198,0.915327787399292
1783080816383720400,5.386720458984375,0.015712639316916466,0.4752407371997833,0.6101297736167908
1783080816403570200,5.406570068359375,0.1808284968137741,0.38096490502357483,0.29707539081573486
1783080816423227400,5.426227294921875,0.411857545375824,-0.822516679763794,-0.9351683259010315
1783080816443076900,5.446076904296875,0.17390428483486176,-1.2921648025512695,-2.2636852264404297
1783080816463118800,5.466118896484375,-0.04181159660220146,0.30959224700927734,-2.376603126525879
1783080816482776000,5.485776123046875,0.013582111336290836,0.8852340579032898,-1.0879005193710327
1783080816502625800,5.505625732421875,0.457663893699646,-0.41838228702545166,-0.0564589723944664
1783080816522475300,5.525475341796875,0.929975152015686,-1.5227943658828735,-0.005858949851244688
1783080816542324700,5.54532470703125,1.1542131900787354,-1.1664637327194214,-1.0406293869018555
1783080816562367000,5.565366943359375,0.8468846082687378,-0.05992107838392258,-2.6823339462280273
1783080816582024200,5.585024169921875,0.43582597374916077,1.0869684219360352,-2.864360809326172
1783080816601874000,5.6048740234375,0.32823434472084045,1.0869684219360352,-0.9644630551338196
1783080816621723400,5.624723388671875,0.3218427896499634,0.1002679392695427,1.0479531288146973
1783080816641573000,5.644572998046875,0.2914827764034271,-0.4737760126590729,1.5351780652999878
1783080816661615400,5.664615478515625,0.1579253375530243,0.07789740711450577,0.6974813938140869
1783080816681465300,5.68446533203125,-0.015180006623268127,1.0615352392196655,-0.26418536901474
1783080816701122600,5.70412255859375,-0.06151897460222244,1.2840421199798584,-0.6502103209495544
1783080816720972000,5.723971923828125,0.05566002428531647,0.8836361765861511,-0.4601939022541046
1783080816740821800,5.74382177734375,0.24367906153202057,0.47470811009407043,-0.08096003532409668
1783080816760864000,5.763864013671875,0.359127014875412,0.4395544230937958,0.08562056720256805
1783080816780521200,5.783521240234375,0.42144492268562317,0.7478150725364685,0.014780532568693161
1783080816800371000,5.803370849609375,0.5098618268966675,0.9906951785087585,-0.11345057934522629
1783080816820413200,5.8234130859375,0.6472808122634888,0.9688572883605957,-0.1502021700143814
1783080816840070400,5.8430703125,0.8937562108039856,0.9592698812484741,-0.062317922711372375
1783080816860112600,5.863112548828125,1.1813774108886719,1.2755200862884521,0.26937854290008545
1783080816879769900,5.882769775390625,1.3761874437332153,1.611078143119812,0.6048034429550171
1783080816899619600,5.90261962890625,1.2000194787979126,1.087501049041748,0.8386288285255432
1783080816919469000,5.922468994140625,0.8197203874588013,0.4161186218261719,0.8615319728851318
1783080816939511300,5.94251123046875,0.7447524666786194,0.875646710395813,0.9739173054695129
1783080816959361300,5.962361328125,0.7522093057632446,-0.03382211923599243,1.2171968221664429
1783080816979018500,5.9820185546875,0.348474383354187,-2.060619354248047,0.43822282552719116
1783080816999060700,6.002060791015625,-0.01837579719722271,-1.290034294128418,-1.6156054735183716
1783080817018718000,6.021718017578125,-0.001331579522229731,0.561926543712616,-2.232792615890503
1783080817038760200,6.04176025390625,0.35593122243881226,-0.15472954511642456,-1.0560756921768188
1783080817058417400,6.06141748046875,0.37989965081214905,-1.1579415798187256,-0.5415533781051636
1783080817078267100,6.08126708984375,-0.17283903062343597,-0.8715187907218933,-1.045423150062561
1783080817098309000,6.10130908203125,0.023702116683125496,-0.8390282988548279,-1.5917701721191406
1783080817117966300,6.12096630859375,0.2660495936870575,-0.34328120946884155,-1.3494226932525635
1783080817138008600,6.141008544921875,0.13182637095451355,0.6013413071632385,-0.7098650336265564
1783080817157665800,6.160665771484375,0.392682820558548,0.4097270369529724,-0.17097482085227966
1783080817177515500,6.180515625,0.7346324324607849,-0.25486433506011963,0.26405221223831177
1783080817197365000,6.200364990234375,0.6190513372421265,-0.4716454744338989,0.7640603184700012
1783080817217214700,6.220214599609375,0.4379565119743347,-0.6158555150032043,1.0941588878631592
1783080817237257000,6.240257080078125,0.348474383354187,-0.5067991614341736,0.8716519474983215
1783080817256914200,6.2599140625,0.25486433506011963,-0.14247901737689972,0.39721018075942993
1783080817276764000,6.279763916015625,0.12330426275730133,-0.10839057713747025,0.3002711832523346
1783080817296613400,6.29961328125,0.006657897960394621,0.003861580742523074,0.3796333372592926
1783080817316655600,6.319655517578125,-0.22716747224330902,0.3452785909175873,0.3380880355834961
1783080817336505600,6.339505615234375,-0.45127230882644653,0.279764860868454,0.4046670198440552
1783080817356201500,6.359201416015625,-0.4384891390800476,0.34740909934043884,0.5419528484344482
1783080817376205300,6.379205322265625,-0.3490070104598999,0.2270343154668808,0.8498140573501587
1783080817395901000,6.39890087890625,-0.27230802178382874,-0.25486433506011963,1.1671295166015625
1783080817415904800,6.41890478515625,-0.05725792050361633,-0.36671701073646545,1.1351715326309204
1783080817435754500,6.43875439453125,0.2324937880039215,-0.31931278109550476,0.948883593082428
1783080817455411700,6.45841162109375,0.7122619152069092,-0.16484954953193665,0.5723128914833069
1783080817475261400,6.478261474609375,0.7191861271858215,0.0762995108962059,0.6271739602088928
1783080817495111000,6.49811083984375,0.5439502596855164,-0.42370861768722534,0.8993488550186157
1783080817515153200,6.518153076171875,0.5056007504463196,-1.4860427379608154,0.14367742836475372
1783080817535003000,6.5380029296875,0.07856319099664688,-0.642487108707428,-1.2439615726470947
1783080817554660000,6.55766015625,-0.334093302488327,0.5502086877822876,-1.6374434232711792
1783080817574509800,6.577509765625,-0.36179015040397644,0.2659164369106293,-0.9170588254928589
1783080817594359300,6.597359375,0.007190529722720385,-0.03808317333459854,-0.9074714779853821
1783080817614401500,6.617401611328125,0.4065312445163727,0.401204913854599,-1.2887027263641357
1783080817634251300,6.637251220703125,0.10199899226427078,0.6631265878677368,-1.200285792350769
1783080817653908700,6.65690869140625,-0.3820301592350006,0.12956269085407257,-0.727974534034729
1783080817673950700,6.67695068359375,-0.19893798232078552,-0.1621863842010498,0.19800588488578796
1783080817693608200,6.696608154296875,0.008788425475358963,-0.0050600022077560425,1.2651337385177612
1783080817713650200,6.716650146484375,0.011451584286987782,-0.05566002428531647,1.7363797426223755
1783080817733500000,6.7365,0.1243695318698883,-0.3134538233280182,1.4531527757644653
1783080817753157400,6.756157470703125,0.15419691801071167,-0.19627483189105988,0.823715090751648
1783080817773006800,6.7760068359375,0.001331579522229731,0.12104058265686035,0.308793306350708
1783080817792856300,6.795856201171875,-0.21065588295459747,0.13915006816387177,0.11917637288570404
1783080817812898600,6.815898681640625,-0.35113751888275146,-0.10626004636287689,0.15592797100543976
1783080817832748500,6.83574853515625,-0.2882869839668274,-0.21012325584888458,0.23209431767463684
1783080817852405800,6.85540576171875,-0.2138516753911972,-0.22716747224330902,0.25606274604797363
1783080817872255200,6.875255126953125,-0.17923060059547424,-0.044474758207798004,0.22197431325912476
1783080817892105000,6.89510498046875,-0.24421168863773346,0.16791218519210815,0.22783325612545013
1783080817912147000,6.91514697265625,-0.37031227350234985,0.09760478138923645,0.4163849353790283
1783080817951654100,6.954654052734375,-0.2564622163772583,0.05339634045958519,0.5861613154411316
1783080817971542300,6.974542236328125,0.0588558167219162,0.5470128655433655,0.3567301630973816
