time,seconds_elapsed,z,y,x
1783081094585331700,0.107331787109375,0.0011984215816482902,0.00013315795513335615,-0.001464737462811172
1783081094605103600,0.127103515625,0.00013315795513335615,-0.0009321057004854083,-0.0003994738799519837
1783081094624798700,0.146798828125,0.00013315795513335615,0.00013315795513335615,0.0006657897611148655
1783081094644647700,0.166647705078125,0.00013315795513335615,0.00013315795513335615,-0.0003994738799519837
1783081094664650500,0.186650390625,0.00013315795513335615,0.00013315795513335615,0.0006657897611148655
1783081094684345600,0.206345703125,0.00013315795513335615,-0.0009321057004854083,-0.0003994738799519837
1783081094704194600,0.226194580078125,0.00013315795513335615,0.00013315795513335615,-0.0003994738799519837
1783081094724043500,0.24604345703125,0.00013315795513335615,0.00013315795513335615,0.0006657897611148655
1783081094743892200,0.265892333984375,0.00013315795513335615,-0.0009321057004854083,-0.0003994738799519837
1783081094763895300,0.285895263671875,0.00013315795513335615,-0.0009321057004854083,0.0006657897611148655
1783081094783590400,0.30559033203125,0.00013315795513335615,-0.0009321057004854083,-0.0003994738799519837
1783081094803439400,0.325439453125,-0.0009321057004854083,-0.0009321057004854083,0.0006657897611148655
1783081094823288300,0.345288330078125,0.0011984215816482902,0.00013315795513335615,0.0006657897611148655
1783081094843137300,0.36513720703125,0.00013315795513335615,0.00013315795513335615,-0.0003994738799519837
1783081094863140400,0.385140380859375,0.00013315795513335615,-0.0009321057004854083,0.0006657897611148655
1783081094882835500,0.40483544921875,0.00013315795513335615,-0.0009321057004854083,-0.001464737462811172
1783081094902646000,0.42464599609375,0.00013315795513335615,-0.0009321057004854083,-0.0003994738799519837
1783081094922494700,0.44449462890625,0.00013315795513335615,0.00013315795513335615,-0.0003994738799519837
1783081094942382000,0.464382080078125,0.00013315795513335615,-0.0009321057004854083,-0.0003994738799519837
1783081094962231000,0.48423095703125,0.00013315795513335615,0.00013315795513335615,-0.0003994738799519837
1783081094982080300,0.504080322265625,0.00013315795513335615,0.00013315795513335615,-0.0003994738799519837
1783081095001929200,0.52392919921875,0.00013315795513335615,-0.0009321057004854083,0.0006657897611148655
1783081095021778200,0.543778076171875,0.00013315795513335615,-0.0019973693415522575,0.0006657897611148655
1783081095041769000,0.56376904296875,0.00013315795513335615,-0.0009321057004854083,-0.0003994738799519837
1783081095061620200,0.5836201171875,0.00013315795513335615,0.00013315795513335615,-0.0003994738799519837
1783081095081470700,0.603470703125,0.00013315795513335615,0.00013315795513335615,-0.001464737462811172
1783081095101321200,0.6233212890625,-0.0009321057004854083,0.00013315795513335615,-0.0003994738799519837
1783081095121171200,0.643171142578125,0.00013315795513335615,0.0011984215816482902,-0.0003994738799519837
1783081095141021200,0.663021240234375,0.0011984215816482902,0.00013315795513335615,0.0006657897611148655
1783081095160870700,0.68287060546875,0.00013315795513335615,0.00013315795513335615,-0.0003994738799519837
1783081095180720400,0.702720458984375,0.00013315795513335615,0.00013315795513335615,-0.0003994738799519837
1783081095200569900,0.72256982421875,0.00013315795513335615,0.00013315795513335615,0.0006657897611148655
1783081095220419000,0.742419189453125,-0.0009321057004854083,0.00013315795513335615,0.0006657897611148655
1783081095240268300,0.762268310546875,0.00013315795513335615,0.00013315795513335615,-0.0003994738799519837
1783081095260117500,0.782117431640625,0.00013315795513335615,0.00013315795513335615,-0.0003994738799519837
1783081095279966700,0.801966796875,0.00013315795513335615,0.00013315795513335615,0.0006657897611148655
1783081095299816000,0.82181591796875,0.00013315795513335615,0.00013315795513335615,0.0006657897611148655
1783081095319665200,0.8416650390625,0.00013315795513335615,0.00013315795513335615,0.0006657897611148655
1783081095339515000,0.861514892578125,-0.0009321057004854083,0.00013315795513335615,-0.0003994738799519837
1783081095379022000,0.90102197265625,0.00013315795513335615,0.00013315795513335615,-0.0003994738799519837
1783081095399063600,0.9210634765625,0.0011984215816482902,0.00013315795513335615,0.0006657897611148655
1783081095418874000,0.9408740234375,0.00013315795513335615,0.0011984215816482902,0.0006657897611148655
1783081095438761700,0.96076171875,0.00013315795513335615,0.00013315795513335615,-0.0003994738799519837
1783081095458611000,0.98061083984375,-0.0009321057004854083,-0.0009321057004854083,-0.0003994738799519837
1783081095478267600,1.000267578125,-0.0009321057004854083,-0.0009321057004854083,-0.0003994738799519837
1783081095498116400,1.020116455078125,-0.0009321057004854083,0.00013315795513335615,0.0006657897611148655
1783081095518151400,1.0401513671875,-0.0009321057004854083,0.0011984215816482902,-0.0003994738799519837
1783081095557906400,1.079906494140625,-0.0009321057004854083,0.00013315795513335615,-0.0003994738799519837
1783081095577516500,1.0995166015625,0.0011984215816482902,0.00013315795513335615,-0.0003994738799519837
1783081095597536800,1.119536865234375,-0.0009321057004854083,0.0011984215816482902,-0.0003994738799519837
1783081095617250300,1.139250244140625,-0.0009321057004854083,0.0011984215816482902,-0.0003994738799519837
1783081095637236700,1.15923681640625,0.00013315795513335615,0.00013315795513335615,-0.0003994738799519837
1783081095657088300,1.179088134765625,-0.0009321057004854083,0.0011984215816482902,-0.0003994738799519837
1783081095676800800,1.19880078125,-0.0009321057004854083,0.00013315795513335615,0.0006657897611148655
1783081095696786400,1.218786376953125,-0.0009321057004854083,0.00013315795513335615,0.0006657897611148655
1783081095716464000,1.238464111328125,0.00013315795513335615,0.00013315795513335615,-0.0003994738799519837
1783081095736483600,1.258483642578125,0.00013315795513335615,0.00013315795513335615,0.0006657897611148655
1783081095756353300,1.278353271484375,-0.0009321057004854083,-0.0009321057004854083,0.0006657897611148655
1783081095796044000,1.3180439453125,0.00013315795513335615,0.00013315795513335615,-0.0003994738799519837
1783081095815893000,1.33789306640625,0.0011984215816482902,0.00013315795513335615,0.0006657897611148655
1783081095835549700,1.3575498046875,0.00013315795513335615,0.0011984215816482902,0.0006657897611148655
1783081095855591000,1.3775908203125,-0.0009321057004854083,0.0011984215816482902,0.0006657897611148655
1783081095875401500,1.3974013671875,-0.0009321057004854083,0.00013315795513335615,-0.0003994738799519837
1783081095895096600,1.4170966796875,-0.0009321057004854083,0.00013315795513335615,-0.001464737462811172
1783081095915138000,1.437137939453125,0.00013315795513335615,-0.0009321057004854083,-0.0003994738799519837
1783081095934794500,1.45679443359375,-0.0009321057004854083,0.00013315795513335615,-0.0003994738799519837
1783081095954643500,1.4766435546875,0.00013315795513335615,-0.0009321057004854083,-0.0003994738799519837
1783081095974677500,1.496677490234375,0.00013315795513335615,0.00013315795513335615,-0.0003994738799519837
1783081095994527500,1.516527587890625,0.00013315795513335615,0.0011984215816482902,-0.0003994738799519837
1783081096014377500,1.53637744140625,-0.0009321057004854083,0.0011984215816482902,-0.0003994738799519837
1783081096034054000,1.556053955078125,0.00013315795513335615,0.00013315795513335615,-0.0003994738799519837
1783081096054072000,1.576072021484375,-0.0009321057004854083,0.00013315795513335615,0.0006657897611148655
1783081096073749200,1.595749267578125,-0.0009321057004854083,0.00013315795513335615,0.0006657897611148655
1783081096093595100,1.61559521484375,0.00013315795513335615,0.00013315795513335615,0.0006657897611148655
1783081096113614600,1.635614501953125,0.00013315795513335615,0.00013315795513335615,-0.0003994738799519837
1783081096133292500,1.65529248046875,0.0011984215816482902,0.00013315795513335615,-0.0003994738799519837
1783081096153139200,1.67513916015625,0.00013315795513335615,0.00013315795513335615,-0.0003994738799519837
1783081096172986400,1.694986328125,-0.0009321057004854083,-0.0009321057004854083,0.0006657897611148655
1783081096192833800,1.714833740234375,0.00013315795513335615,0.00013315795513335615,0.0006657897611148655
1783081096232722000,1.754721923828125,0.00013315795513335615,0.00013315795513335615,-0.0003994738799519837
1783081096252571100,1.774571044921875,0.00013315795513335615,0.00013315795513335615,-0.0003994738799519837
1783081096272420400,1.79442041015625,-0.0009321057004854083,0.00013315795513335615,-0.0003994738799519837
1783081096292317700,1.814317626953125,0.00013315795513335615,0.00013315795513335615,-0.0003994738799519837
1783081096332065500,1.8540654296875,0.00013315795513335615,0.0011984215816482902,0.0006657897611148655
1783081096351816400,1.87381640625,0.00013315795513335615,0.00013315795513335615,-0.0003994738799519837
1783081096371665400,1.89366552734375,0.00013315795513335615,0.00013315795513335615,-0.0003994738799519837
1783081096391514400,1.913514404296875,0.00013315795513335615,0.0011984215816482902,-0.0003994738799519837
1783081096411363600,1.933363525390625,0.00013315795513335615,0.0011984215816482902,0.0006657897611148655
1783081096431212500,1.953212646484375,-0.0009321057004854083,0.00013315795513335615,0.0006657897611148655
1783081096451061500,1.9730615234375,-0.0009321057004854083,0.00013315795513335615,-0.001464737462811172
1783081096470910500,1.992910400390625,0.00013315795513335615,0.00013315795513335615,0.0006657897611148655
1783081096490759700,2.012759765625,-0.0009321057004854083,0.00013315795513335615,0.0006657897611148655
1783081096510608600,2.032608642578125,-0.0009321057004854083,0.00013315795513335615,0.0006657897611148655
1783081096530457600,2.05245751953125,-0.0009321057004854083,0.00013315795513335615,-0.0003994738799519837
1783081096550306600,2.072306640625,0.00013315795513335615,0.00013315795513335615,0.0006657897611148655
1783081096570152700,2.092152587890625,0.00013315795513335615,0.00013315795513335615,0.0006657897611148655
1783081096589828900,2.111828857421875,0.00013315795513335615,0.00013315795513335615,0.0006657897611148655
1783081096609639700,2.1316396484375,-0.0009321057004854083,0.00013315795513335615,-0.0003994738799519837
1783081096629768700,2.151768798828125,-0.0009321057004854083,0.00013315795513335615,-0.0003994738799519837
1783081096649399600,2.171399658203125,-0.0009321057004854083,0.00013315795513335615,-0.0003994738799519837
1783081096669386000,2.191385986328125,0.00013315795513335615,-0.0009321057004854083,-0.0003994738799519837
1783081096689098800,2.2110986328125,0.00013315795513335615,0.00013315795513335615,-0.0003994738799519837
1783081096708935400,2.230935302734375,0.00013315795513335615,0.00013315795513335615,-0.0003994738799519837
1783081096748604200,2.270604248046875,0.00013315795513335615,0.0011984215816482902,-0.0003994738799519837
1783081096768645400,2.290645263671875,0.00013315795513335615,0.00013315795513335615,-0.0003994738799519837
1783081096788305700,2.3103056640625,0.00013315795513335615,-0.0009321057004854083,0.0006657897611148655
1783081096828192500,2.350192626953125,0.00013315795513335615,0.00013315795513335615,-0.0003994738799519837
1783081096847849200,2.36984912109375,0.00013315795513335615,0.00013315795513335615,-0.0003994738799519837
1783081096867890400,2.389890380859375,0.00013315795513335615,0.00013315795513335615,-0.0003994738799519837
1783081096887739600,2.40973974609375,0.0011984215816482902,0.00013315795513335615,-0.0003994738799519837
1783081096907396000,2.42939599609375,0.00013315795513335615,0.0011984215816482902,-0.0003994738799519837
1783081096927245000,2.4492451171875,0.00013315795513335615,0.0011984215816482902,-0.0003994738799519837
1783081096947093800,2.46909375,0.00013315795513335615,0.00013315795513335615,0.0006657897611148655
1783081096967135200,2.48913525390625,0.0011984215816482902,0.00013315795513335615,-0.0003994738799519837
1783081096986971600,2.5089716796875,0.0011984215816482902,0.0011984215816482902,0.0006657897611148655
1783081097006823000,2.528822998046875,0.00013315795513335615,-0.0009321057004854083,0.0006657897611148655
1783081097026673700,2.548673583984375,0.00013315795513335615,0.00013315795513335615,-0.0003994738799519837
1783081097046350600,2.5683505859375,0.00013315795513335615,0.0011984215816482902,0.0006657897611148655
1783081097066369500,2.58836962890625,0.00013315795513335615,0.00013315795513335615,0.0006657897611148655
1783081097086047000,2.608046875,-0.0009321057004854083,0.00013315795513335615,0.0006657897611148655
1783081097106066400,2.62806640625,0.00013315795513335615,0.00013315795513335615,-0.0003994738799519837
1783081097125917200,2.647917236328125,-0.0009321057004854083,-0.0009321057004854083,-0.0003994738799519837
1783081097145594600,2.6675947265625,0.00013315795513335615,-0.0009321057004854083,-0.0003994738799519837
1783081097165613800,2.68761376953125,0.00013315795513335615,0.0011984215816482902,0.0006657897611148655
1783081097185291500,2.70729150390625,-0.0009321057004854083,0.00013315795513335615,0.0017310534603893757
1783081097205310700,2.727310791015625,-0.0009321057004854083,-0.0009321057004854083,0.0006657897611148655
1783081097224988700,2.74698876953125,-0.0009321057004854083,0.00013315795513335615,-0.0003994738799519837
1783081097244835300,2.76683544921875,0.00013315795513335615,-0.0009321057004854083,-0.0003994738799519837
1783081097264855300,2.786855224609375,-0.0009321057004854083,0.00013315795513335615,-0.0003994738799519837
1783081097284533800,2.80653369140625,0.00013315795513335615,0.00013315795513335615,-0.0003994738799519837
1783081097304553700,2.8265537109375,0.00013315795513335615,-0.0009321057004854083,0.0017310534603893757
1783081097324232000,2.84623193359375,0.00013315795513335615,0.00013315795513335615,-0.0003994738799519837
1783081097344078800,2.866078857421875,0.00013315795513335615,0.00013315795513335615,0.0006657897611148655
1783081097364099300,2.886099365234375,-0.0009321057004854083,0.00013315795513335615,-0.0003994738799519837
1783081097383777800,2.90577783203125,-0.0009321057004854083,0.00013315795513335615,0.0006657897611148655
1783081097423662800,2.945662841796875,0.00013315795513335615,0.00013315795513335615,0.0006657897611148655
1783081097443512000,2.965511962890625,0.00013315795513335615,0.0011984215816482902,-0.0003994738799519837
1783081097463361000,2.985361083984375,0.00013315795513335615,0.00013315795513335615,0.0006657897611148655
1783081097483018000,3.00501806640625,0.00013315795513335615,0.00013315795513335615,0.0006657897611148655
1783081097502866700,3.02486669921875,0.00013315795513335615,0.0011984215816482902,-0.0003994738799519837
1783081097522908000,3.044907958984375,0.00013315795513335615,0.00013315795513335615,-0.0003994738799519837
1783081097542757000,3.064757080078125,0.00013315795513335615,0.00013315795513335615,-0.0003994738799519837
1783081097562606000,3.084606201171875,0.00013315795513335615,0.00013315795513335615,-0.0003994738799519837
1783081097582262800,3.1042626953125,0.00013315795513335615,-0.0009321057004854083,-0.0003994738799519837
1783081097602111700,3.12411181640625,0.00013315795513335615,-0.0009321057004854083,-0.0003994738799519837
1783081097621960400,3.14396044921875,0.00013315795513335615,-0.0009321057004854083,-0.0003994738799519837
1783081097641809400,3.163809326171875,0.00013315795513335615,-0.0009321057004854083,-0.0003994738799519837
1783081097661851000,3.183850830078125,-0.0009321057004854083,0.00013315795513335615,-0.0003994738799519837
1783081097681546000,3.2035458984375,-0.0009321057004854083,0.00013315795513335615,-0.0003994738799519837
1783081097701395000,3.22339501953125,0.00013315795513335615,0.00013315795513335615,-0.0003994738799519837
1783081097721244000,3.243243896484375,0.0011984215816482902,0.00013315795513335615,0.0006657897611148655
1783081097741092900,3.2630927734375,0.00013315795513335615,0.00013315795513335615,0.0006657897611148655
1783081097761096000,3.283095947265625,-0.0009321057004854083,0.00013315795513335615,-0.0003994738799519837
1783081097780752600,3.302752685546875,0.00013315795513335615,-0.0009321057004854083,-0.0003994738799519837
1783081097800793900,3.3227939453125,0.00013315795513335615,0.00013315795513335615,-0.0003994738799519837
1783081097820643000,3.34264306640625,0.00013315795513335615,0.00013315795513335615,-0.001464737462811172
1783081097840481300,3.362481201171875,0.00013315795513335615,0.00013315795513335615,0.0006657897611148655
1783081097860332000,3.38233203125,0.00013315795513335615,0.00013315795513335615,0.0006657897611148655
1783081097880182500,3.4021826171875,0.00013315795513335615,0.0011984215816482902,-0.0003994738799519837
1783081097900032800,3.42203271484375,0.00013315795513335615,0.0011984215816482902,0.0006657897611148655
1783081097919882500,3.441882568359375,0.00013315795513335615,0.00013315795513335615,0.0006657897611148655
1783081097939732200,3.461732177734375,0.00013315795513335615,0.00013315795513335615,-0.0003994738799519837
1783081097959582000,3.48158203125,0.00013315795513335615,0.00013315795513335615,-0.0003994738799519837
1783081097979431400,3.501431396484375,0.0011984215816482902,0.00013315795513335615,-0.0003994738799519837
1783081097999280600,3.52128076171875,0.00013315795513335615,0.00013315795513335615,0.0006657897611148655
1783081098018956800,3.540956787109375,-0.0009321057004854083,0.00013315795513335615,-0.0003994738799519837
1783081098038802000,3.560802001953125,0.00013315795513335615,0.0011984215816482902,0.0006657897611148655
1783081098058820900,3.58082080078125,0.00013315795513335615,0.00013315795513335615,0.0006657897611148655
1783081098078671400,3.60067138671875,0.00013315795513335615,0.00013315795513335615,-0.001464737462811172
1783081098098348500,3.6203486328125,0.00013315795513335615,0.00013315795513335615,-0.0003994738799519837
1783081098118367500,3.640367431640625,0.00013315795513335615,0.00013315795513335615,-0.0003994738799519837
1783081098138045000,3.660044921875,-0.0009321057004854083,0.00013315795513335615,-0.0003994738799519837
1783081098158064400,3.680064453125,0.00013315795513335615,0.00013315795513335615,-0.0003994738799519837
1783081098177742000,3.6997421875,0.00013315795513335615,0.00013315795513335615,-0.0003994738799519837
1783081098197588500,3.71958837890625,0.00013315795513335615,0.00013315795513335615,0.0006657897611148655
1783081098217608400,3.7396083984375,0.00013315795513335615,0.0011984215816482902,0.0006657897611148655
1783081098237460200,3.759460205078125,0.00013315795513335615,0.00013315795513335615,-0.0003994738799519837
1783081098257311200,3.779311279296875,0.00013315795513335615,0.00013315795513335615,-0.0003994738799519837
1783081098276988700,3.79898876953125,0.00013315795513335615,0.00013315795513335615,-0.0003994738799519837
1783081098296834800,3.818834716796875,0.00013315795513335615,0.00013315795513335615,-0.0003994738799519837
1783081098336718000,3.858718017578125,0.00013315795513335615,0.0011984215816482902,0.0006657897611148655
1783081098356374500,3.87837451171875,0.00013315795513335615,0.0011984215816482902,0.0006657897611148655
1783081098376416000,3.898416015625,-0.0009321057004854083,0.00013315795513335615,-0.0003994738799519837
1783081098396072400,3.918072509765625,0.00013315795513335615,0.00013315795513335615,0.0006657897611148655
1783081098416114000,3.938114013671875,-0.0009321057004854083,0.00013315795513335615,0.0006657897611148655
1783081098435963000,3.957962890625,-0.0009321057004854083,0.00013315795513335615,-0.0003994738799519837
1783081098455619600,3.97761962890625,-0.0009321057004854083,0.00013315795513335615,-0.0003994738799519837
1783081098475661000,3.9976611328125,-0.0009321057004854083,0.0011984215816482902,0.0006657897611148655
1783081098495317500,4.0173173828125,-0.0009321057004854083,0.0011984215816482902,0.0006657897611148655
1783081098515359000,4.03735888671875,0.00013315795513335615,-0.0009321057004854083,0.0006657897611148655
1783081098535015400,4.057015380859375,0.00013315795513335615,0.00013315795513335615,-0.0003994738799519837
1783081098555057000,4.077056884765625,-0.0009321057004854083,0.00013315795513335615,0.0006657897611148655
1783081098574906000,4.096906005859375,-0.0009321057004854083,-0.0009321057004854083,-0.0003994738799519837
1783081098594562800,4.116562744140625,-0.0009321057004854083,-0.0009321057004854083,-0.0003994738799519837
1783081098614604000,4.13660400390625,0.00013315795513335615,0.00013315795513335615,-0.0003994738799519837
1783081098634260700,4.1562607421875,0.0011984215816482902,0.00013315795513335615,0.0006657897611148655
1783081098654302000,4.176302001953125,0.0011984215816482902,0.00013315795513335615,-0.0003994738799519837
1783081098674151200,4.196151123046875,0.00013315795513335615,0.00013315795513335615,-0.0003994738799519837
1783081098693807900,4.215807861328125,0.0011984215816482902,-0.0009321057004854083,0.0006657897611148655
1783081098713849000,4.23584912109375,0.0011984215816482902,0.00013315795513335615,-0.0003994738799519837
1783081098733544200,4.255544189453125,0.00013315795513335615,0.00013315795513335615,-0.0003994738799519837
1783081098753393200,4.27539306640625,0.00013315795513335615,0.00013315795513335615,-0.0003994738799519837
1783081098773396200,4.295396240234375,0.00013315795513335615,0.00013315795513335615,0.0006657897611148655
1783081098793091300,4.31509130859375,-0.0009321057004854083,0.00013315795513335615,0.0006657897611148655
1783081098813094100,4.33509423828125,0.00013315795513335615,-0.0009321057004854083,-0.0003994738799519837
1783081098832750800,4.354750732421875,0.00013315795513335615,0.00013315795513335615,-0.0003994738799519837
1783081098852792300,4.374792236328125,0.00013315795513335615,-0.0009321057004854083,-0.0003994738799519837
1783081098872641500,4.3946416015625,-0.0009321057004854083,0.00013315795513335615,0.0006657897611148655
1783081098892481000,4.41448095703125,0.00013315795513335615,0.00013315795513335615,-0.0003994738799519837
1783081098912362500,4.434362548828125,0.00013315795513335615,0.00013315795513335615,-0.0003994738799519837
1783081098932248000,4.454248046875,0.00013315795513335615,0.00013315795513335615,-0.0003994738799519837
1783081098952033800,4.47403369140625,-0.0009321057004854083,0.00013315795513335615,-0.0003994738799519837
1783081098971883000,4.493883056640625,0.00013315795513335615,0.00013315795513335615,-0.0003994738799519837
1783081098991559200,4.51355908203125,0.00013315795513335615,0.0011984215816482902,-0.0003994738799519837
1783081099011577000,4.5335771484375,0.00013315795513335615,0.00013315795513335615,0.0017310534603893757
1783081099031358000,4.55335791015625,0.00013315795513335615,-0.0009321057004854083,0.0006657897611148655
1783081099051275300,4.573275146484375,0.0011984215816482902,0.00013315795513335615,-0.0003994738799519837
1783081099070952200,4.5929521484375,0.00013315795513335615,-0.0009321057004854083,-0.0003994738799519837
1783081099090797800,4.6127978515625,0.00013315795513335615,0.00013315795513335615,-0.0003994738799519837
1783081099110817300,4.6328173828125,0.00013315795513335615,0.0011984215816482902,-0.0003994738799519837
1783081099130668300,4.652668212890625,0.00013315795513335615,0.0011984215816482902,-0.0003994738799519837
1783081099150345700,4.672345703125,0.00013315795513335615,0.00013315795513335615,-0.0003994738799519837
1783081099170192000,4.69219189453125,0.0011984215816482902,0.00013315795513335615,-0.0003994738799519837
1783081099190211600,4.712211669921875,-0.0009321057004854083,0.00013315795513335615,-0.0003994738799519837
1783081099210063000,4.73206298828125,-0.0009321057004854083,0.00013315795513335615,-0.0003994738799519837
1783081099229914000,4.7519140625,-0.0009321057004854083,0.00013315795513335615,-0.0003994738799519837
1783081099249591300,4.77159130859375,0.00013315795513335615,0.00013315795513335615,-0.0003994738799519837
1783081099269610200,4.7916103515625,-0.0009321057004854083,0.00013315795513335615,0.0006657897611148655
1783081099289288000,4.811287841796875,-0.0009321057004854083,0.00013315795513335615,0.0006657897611148655
1783081099309307400,4.831307373046875,0.00013315795513335615,0.00013315795513335615,-0.0003994738799519837
1783081099329158400,4.851158447265625,0.00013315795513335615,0.00013315795513335615,-0.0003994738799519837
1783081099348835800,4.8708359375,0.00013315795513335615,0.00013315795513335615,0.0006657897611148655
1783081099368855000,4.89085498046875,0.00013315795513335615,0.00013315795513335615,-0.0003994738799519837
1783081099388532700,4.91053271484375,0.00013315795513335615,0.00013315795513335615,-0.0003994738799519837
1783081099408482800,4.93048291015625,0.00013315795513335615,0.00013315795513335615,-0.0003994738799519837
1783081099428228600,4.950228515625,0.00013315795513335615,0.00013315795513335615,-0.0003994738799519837
1783081099448075500,4.970075439453125,0.0011984215816482902,0.00013315795513335615,0.0006657897611148655
1783081099468095700,4.990095703125,0.00013315795513335615,0.00013315795513335615,0.0006657897611148655
1783081099487774200,5.009774169921875,-0.0009321057004854083,0.00013315795513335615,-0.0003994738799519837
1783081099507794400,5.02979443359375,0.00013315795513335615,0.00013315795513335615,-0.0003994738799519837
1783081099527473000,5.049472900390625,0.00013315795513335615,0.00013315795513335615,0.0006657897611148655
1783081099547492900,5.069492919921875,0.00013315795513335615,0.00013315795513335615,0.0006657897611148655
1783081099567344600,5.0893447265625,0.00013315795513335615,0.00013315795513335615,-0.0003994738799519837
1783081099587022300,5.109022216796875,0.00013315795513335615,0.00013315795513335615,-0.0003994738799519837
1783081099607041800,5.129041748046875,0.00013315795513335615,0.00013315795513335615,-0.001464737462811172
1783081099626719700,5.1487197265625,0.00013315795513335615,0.00013315795513335615,0.0006657897611148655
1783081099646566400,5.16856640625,0.00013315795513335615,0.00013315795513335615,0.0006657897611148655
1783081099666586600,5.188586669921875,0.00013315795513335615,0.00013315795513335615,-0.0003994738799519837
1783081099686438400,5.2084384765625,0.00013315795513335615,0.00013315795513335615,-0.0003994738799519837
1783081099706289700,5.22828955078125,-0.0009321057004854083,0.0011984215816482902,-0.0003994738799519837
1783081099725967000,5.247967041015625,0.00013315795513335615,0.0011984215816482902,-0.0003994738799519837
1783081099745813200,5.267813232421875,0.00013315795513335615,0.00013315795513335615,-0.0003994738799519837
1783081099765833200,5.287833251953125,0.00013315795513335615,0.0011984215816482902,-0.0003994738799519837
1783081099785546000,5.3075458984375,0.0011984215816482902,0.00013315795513335615,0.0006657897611148655
1783081099805532200,5.3275322265625,0.00013315795513335615,0.00013315795513335615,0.0006657897611148655
1783081099825383200,5.347383056640625,0.00013315795513335615,0.00013315795513335615,0.0006657897611148655
1783081099845234200,5.367234130859375,0.00013315795513335615,0.0011984215816482902,-0.0003994738799519837
1783081099865084700,5.387084716796875,0.00013315795513335615,0.00013315795513335615,-0.001464737462811172
1783081099884935000,5.406934814453125,0.00013315795513335615,-0.0009321057004854083,-0.0003994738799519837
1783081099904785000,5.426784912109375,0.0011984215816482902,-0.0009321057004854083,-0.0003994738799519837
1783081099924634600,5.446634521484375,0.0011984215816482902,0.00013315795513335615,-0.0003994738799519837
1783081099944484000,5.466484130859375,0.00013315795513335615,0.0011984215816482902,-0.0003994738799519837
1783081099964333600,5.48633349609375,0.00013315795513335615,0.00013315795513335615,-0.0003994738799519837
1783081099984183000,5.50618310546875,0.00013315795513335615,0.00013315795513335615,0.0006657897611148655
1783081100004067000,5.526067138671875,0.00013315795513335615,0.00013315795513335615,0.0006657897611148655
1783081100023882500,5.545882568359375,0.00013315795513335615,0.00013315795513335615,0.0006657897611148655
1783081100043731500,5.5657314453125,0.00013315795513335615,0.00013315795513335615,-0.0003994738799519837
1783081100063580400,5.585580322265625,0.00013315795513335615,0.00013315795513335615,-0.0003994738799519837
1783081100083429600,5.6054296875,0.00013315795513335615,0.0011984215816482902,0.0017310534603893757
1783081100103278600,5.625278564453125,0.00013315795513335615,0.00013315795513335615,0.0017310534603893757
1783081100123127600,5.64512744140625,-0.0009321057004854083,-0.0009321057004854083,-0.0003994738799519837
1783081100142976800,5.664976806640625,-0.0009321057004854083,0.00013315795513335615,-0.0003994738799519837
1783081100162825700,5.68482568359375,0.00013315795513335615,0.00013315795513335615,-0.0003994738799519837
1783081100182674700,5.7046748046875,0.00013315795513335615,0.00013315795513335615,0.0006657897611148655
1783081100202524000,5.72452392578125,0.00013315795513335615,0.00013315795513335615,0.0006657897611148655
1783081100222372900,5.744372802734375,0.00013315795513335615,-0.0009321057004854083,-0.0003994738799519837
1783081100242221800,5.764221923828125,0.00013315795513335615,0.00013315795513335615,-0.0003994738799519837
1783081100262070800,5.78407080078125,0.00013315795513335615,0.00013315795513335615,-0.0003994738799519837
1783081100281920000,5.803919921875,0.00013315795513335615,0.00013315795513335615,-0.0003994738799519837
1783081100301769000,5.82376904296875,0.00013315795513335615,0.0011984215816482902,-0.0003994738799519837
1783081100321618000,5.843617919921875,0.00013315795513335615,0.00013315795513335615,-0.0003994738799519837
1783081100341467000,5.863466796875,0.00013315795513335615,0.00013315795513335615,0.0006657897611148655
1783081100361316000,5.883316162109375,0.00013315795513335615,0.0011984215816482902,-0.0003994738799519837
1783081100381165000,5.9031650390625,-0.0009321057004854083,0.0011984215816482902,-0.0003994738799519837
1783081100401014000,5.923013916015625,0.00013315795513335615,0.00013315795513335615,0.0006657897611148655
1783081100420863000,5.942863037109375,0.00013315795513335615,0.00013315795513335615,0.0006657897611148655
1783081100440712200,5.962712158203125,0.00013315795513335615,0.00013315795513335615,0.0006657897611148655
1783081100460561200,5.98256103515625,0.0011984215816482902,0.0011984215816482902,0.0006657897611148655
1783081100480410000,6.00241015625,0.0011984215816482902,0.00013315795513335615,-0.0003994738799519837
1783081100500259300,6.02225927734375,0.00013315795513335615,0.00013315795513335615,-0.0003994738799519837
1783081100520108300,6.0421083984375,0.00013315795513335615,0.00013315795513335615,0.0006657897611148655
1783081100539957200,6.061957275390625,-0.0009321057004854083,0.0011984215816482902,-0.0003994738799519837
1783081100559806200,6.08180615234375,0.00013315795513335615,0.00013315795513335615,-0.0003994738799519837
1783081100579655400,6.101655517578125,0.00013315795513335615,0.00013315795513335615,-0.0003994738799519837
1783081100599504400,6.12150439453125,0.00013315795513335615,0.00013315795513335615,-0.0003994738799519837
1783081100619284200,6.1412841796875,0.00013315795513335615,0.00013315795513335615,-0.0003994738799519837
1783081100639027700,6.16102783203125,0.00013315795513335615,0.00013315795513335615,-0.001464737462811172
1783081100659045600,6.181045654296875,0.00013315795513335615,0.0011984215816482902,-0.0003994738799519837
1783081100678826500,6.200826416015625,0.00013315795513335615,0.00013315795513335615,-0.0003994738799519837
1783081100698571000,6.220571044921875,-0.0009321057004854083,-0.0009321057004854083,-0.0003994738799519837
1783081100718417200,6.240417236328125,0.00013315795513335615,-0.0009321057004854083,0.0006657897611148655
1783081100738263600,6.260263671875,0.00013315795513335615,0.00013315795513335615,0.0006657897611148655
1783081100758283800,6.28028369140625,0.00013315795513335615,0.00013315795513335615,0.0006657897611148655
1783081100777962000,6.2999619140625,0.00013315795513335615,0.00013315795513335615,-0.0003994738799519837
1783081100797809000,6.319808837890625,0.00013315795513335615,0.00013315795513335615,-0.0003994738799519837
1783081100817656300,6.33965625,0.00013315795513335615,0.00013315795513335615,0.0006657897611148655
1783081100837538600,6.35953857421875,0.00013315795513335615,-0.0009321057004854083,0.0006657897611148655
1783081100857526000,6.379526123046875,-0.0009321057004854083,0.00013315795513335615,0.0006657897611148655
1783081100877378300,6.39937841796875,0.00013315795513335615,0.00013315795513335615,-0.0003994738799519837
1783081100897091000,6.419091064453125,0.00013315795513335615,-0.0009321057004854083,-0.0003994738799519837
1783081100916938800,6.438938720703125,0.00013315795513335615,-0.0009321057004854083,-0.0003994738799519837
1783081100936752000,6.458752197265625,0.00013315795513335615,0.00013315795513335615,-0.0003994738799519837
1783081100956772600,6.478772705078125,-0.0009321057004854083,0.00013315795513335615,-0.0003994738799519837
1783081100976451000,6.498451171875,0.0011984215816482902,0.00013315795513335615,-0.0003994738799519837
1783081100996298200,6.51829833984375,0.0011984215816482902,-0.0009321057004854083,-0.0003994738799519837
1783081101016319000,6.538319091796875,0.00013315795513335615,-0.0009321057004854083,0.0006657897611148655
1783081101035997700,6.557997802734375,0.00013315795513335615,0.00013315795513335615,0.0006657897611148655
1783081101056018000,6.578017822265625,0.00013315795513335615,0.00013315795513335615,0.0006657897611148655
1783081101075696400,6.5976962890625,-0.0009321057004854083,-0.0009321057004854083,0.0006657897611148655
1783081101095543600,6.61754345703125,0.00013315795513335615,0.0011984215816482902,-0.0003994738799519837
1783081101115564300,6.637564208984375,0.00013315795513335615,0.00013315795513335615,0.0006657897611148655
1783081101135416300,6.657416259765625,0.00013315795513335615,0.0011984215816482902,0.0006657897611148655
1783081101155267600,6.677267578125,0.00013315795513335615,0.0011984215816482902,-0.0003994738799519837
1783081101174945300,6.6969453125,0.00013315795513335615,0.0011984215816482902,-0.0003994738799519837
1783081101194791700,6.716791748046875,0.00013315795513335615,0.00013315795513335615,0.0006657897611148655
1783081101214638600,6.736638671875,0.00013315795513335615,0.00013315795513335615,-0.0003994738799519837
1783081101234659000,6.7566591796875,0.00013315795513335615,0.006524739786982536,0.002796316985040903
1783081101254511000,6.776510986328125,0.00013315795513335615,0.006524739786982536,0.002796316985040903
1783081101274223600,6.7962236328125,0.00013315795513335615,-0.0009321057004854083,-0.0003994738799519837
1783081101294209500,6.81620947265625,0.00013315795513335615,-0.0019973693415522575,-0.001464737462811172
1783081101313922300,6.83592236328125,0.00013315795513335615,-0.0019973693415522575,-0.0025300011038780212
