time,seconds_elapsed,z,y,x
1783080122549093000,0.099093017578125,-0.3973360061645508,0.06155495345592499,0.10372376441955566
1783080122568960300,0.118960205078125,-0.2062816619873047,0.0005412697792053223,0.0779847502708435
1783080122588580000,0.138580078125,0.024687767028808594,-0.028490111231803894,0.05752721428871155
1783080122628434400,0.178434326171875,0.15342330932617188,-0.046721771359443665,-0.019816845655441284
1783080122648284200,0.1982841796875,0.05583000183105469,-0.029708638787269592,-0.06310966610908508
1783080122668134000,0.2181337890625,-0.019898414611816406,-0.04080688953399658,-0.009507179260253906
1783080122687983600,0.237983642578125,-0.05599021911621094,-0.01886296272277832,-0.02070644497871399
1783080122707833300,0.257833251953125,-0.06074810028076172,-0.0018945634365081787,-0.07532206177711487
1783080122727683000,0.27768310546875,-0.08633804321289062,-0.0024186670780181885,-0.1016591489315033
1783080122747532800,0.29753271484375,-0.09735393524169922,-0.0058543384075164795,-0.07499033212661743
1783080122767382300,0.31738232421875,-0.12172889709472656,0.013828441500663757,-0.047735005617141724
1783080122787232000,0.33723193359375,-0.02724742889404297,0.05113042891025543,-0.020003914833068848
1783080122807081700,0.357081787109375,0.0338592529296875,0.053885459899902344,0.04596027731895447
1783080122826931200,0.37693115234375,0.07201957702636719,0.02932712435722351,0.04793506860733032
1783080122846781000,0.396781005859375,0.12747764587402344,0.045511603355407715,0.0052072107791900635
1783080122866630700,0.416630615234375,0.22972869873046875,0.01786983013153076,0.03473064303398132
1783080122886480100,0.436480224609375,0.23386096954345703,-0.027383610606193542,0.012937664985656738
1783080122906329900,0.456329833984375,0.16183185577392578,-0.036171793937683105,0.010041803121566772
1783080122926179300,0.476179443359375,0.01602649688720703,-0.028058350086212158,0.01685085892677307
1783080122946029000,0.496029052734375,-0.1110086441040039,-0.04820328950881958,0.06021556258201599
1783080122965878800,0.515878662109375,-0.032802581787109375,-0.017743229866027832,-0.10825484991073608
1783080122985728500,0.535728515625,0.0953359603881836,-0.05359742045402527,-0.08642679452896118
1783080123005578000,0.555577880859375,0.12226295471191406,-0.11580641567707062,0.0941031277179718
1783080123025427700,0.575427734375,0.0032749176025390625,-0.08806619048118591,0.1349569857120514
1783080123045277400,0.59527734375,-0.08138751983642578,-0.030651122331619263,0.0560818612575531
1783080123065127000,0.615126953125,-0.18904685974121094,-0.011335492134094238,0.024442225694656372
1783080123084976600,0.6349765625,-0.196533203125,-0.023093461990356445,0.04284757375717163
1783080123104826400,0.654826416015625,-0.12997913360595703,-0.08605170249938965,0.10092496871948242
1783080123124675800,0.67467578125,-0.04019927978515625,-0.07835665345191956,0.0437847375869751
1783080123144525600,0.694525634765625,-0.061855316162109375,-0.08764547109603882,0.0562586784362793
1783080123164375000,0.714375,-0.031764984130859375,-0.008125096559524536,0.028424590826034546
1783080123184224800,0.734224853515625,-0.09305095672607422,0.009808182716369629,0.08456355333328247
1783080123204074500,0.754074462890625,-0.07605934143066406,-0.01377946138381958,0.10090047121047974
1783080123223924000,0.773924072265625,-0.01826763153076172,0.00668761134147644,0.019185811281204224
1783080123243773700,0.793773681640625,0.08618927001953125,-0.01990678906440735,-0.010665863752365112
1783080123263623400,0.81362353515625,0.11332416534423828,-0.04897713661193848,-0.030216753482818604
1783080123283280600,0.83328076171875,0.07953166961669922,-0.01940932869911194,-0.05450412631034851
1783080123303129900,0.8531298828125,-0.04120349884033203,-0.033458709716796875,-0.06213444471359253
1783080123322979300,0.872979248046875,-0.10475349426269531,-0.07375133037567139,-0.04870542883872986
1783080123342828800,0.892828857421875,-0.02504444122314453,-0.036106884479522705,-0.11352849006652832
1783080123362870800,0.912870849609375,0.014927864074707031,0.02920547127723694,-0.0634264349937439
1783080123382566400,0.93256640625,-0.011056900024414062,0.024763286113739014,0.04663059115409851
1783080123402416000,0.952416015625,-0.057106971740722656,0.05723258852958679,0.039055824279785156
1783080123422227200,0.972227294921875,-0.08331298828125,0.054045140743255615,0.010155141353607178
1783080123442076700,0.99207666015625,0.023146629333496094,0.0776621401309967,0.013002455234527588
1783080123462118700,1.01211865234375,0.1029195785522461,0.06526961922645569,0.1441507637500763
1783080123481776000,1.031776123046875,0.1477956771850586,0.060362666845321655,0.1698298454284668
1783080123501625600,1.05162548828125,0.08954048156738281,0.04907083511352539,0.10862070322036743
1783080123521475000,1.07147509765625,0.014956474304199219,0.03804504871368408,0.0320887565612793
1783080123541324500,1.091324462890625,0.07012367248535156,0.017665505409240723,-0.06913501024246216
1783080123561366800,1.11136669921875,0.03998565673828125,0.015789896249771118,-0.12930601835250854
1783080123581216800,1.131216796875,0.017902374267578125,-0.0092640221118927,-0.0777510404586792
1783080123600912400,1.150912353515625,-0.05648326873779297,0.004682987928390503,-0.06357720494270325
1783080123620761900,1.170761962890625,-0.047507286071777344,-0.0041799843311309814,-0.06612694263458252
1783080123640611600,1.190611572265625,-0.06212139129638672,-0.011336475610733032,-0.0709976851940155
1783080123660615200,1.210615234375,-0.06214427947998047,-0.039719074964523315,-0.059702664613723755
1783080123680465000,1.23046484375,-0.06903553009033203,0.02023109793663025,-0.09847277402877808
1783080123700160800,1.250160888671875,-0.06202220916748047,0.03487807512283325,-0.052252352237701416
1783080123720010200,1.27001025390625,-0.039368629455566406,-0.007047384977340698,-0.01679152250289917
1783080123740013800,1.290013916015625,0.06351757049560547,-0.016176939010620117,-0.09740954637527466
1783080123759863600,1.309863525390625,0.1101522445678711,-0.0238797664642334,-0.09575864672660828
1783080123779520800,1.329520751953125,0.15536022186279297,0.03317570686340332,0.001563340425491333
1783080123799409000,1.349408935546875,-0.004469871520996094,0.044982969760894775,0.0936635434627533
1783080123819412500,1.36941259765625,-0.10793685913085938,0.05344700813293457,0.03975704312324524
1783080123839262200,1.38926220703125,-0.1851348876953125,0.0773608386516571,-0.00847676396369934
1783080123859112000,1.40911181640625,-0.11200904846191406,0.06857392191886902,0.006846129894256592
1783080123878961700,1.428961669921875,0.0072116851806640625,0.04974445700645447,0.002607792615890503
1783080123898619000,1.448618896484375,0.12494850158691406,0.027061253786087036,-0.04820889234542847
1783080123918468400,1.46846826171875,0.08138084411621094,0.06437265872955322,-0.012577950954437256
1783080123938510300,1.48851025390625,0.023057937622070312,0.04329618811607361,0.05546584725379944
1783080123958359800,1.50835986328125,0.0059375762939453125,0.022029221057891846,-0.022974610328674316
1783080123978017300,1.528017333984375,0.06344890594482422,-0.011068642139434814,-0.03190279006958008
1783080123997905200,1.5479052734375,0.05208110809326172,0.0007442831993103027,0.03989362716674805
1783080124017754600,1.567754638671875,-0.030524253845214844,0.04095122218132019,0.05672314763069153
1783080124037758200,1.58775830078125,-0.08978462219238281,0.02700689435005188,0.00684162974357605
1783080124057454000,1.6074541015625,-0.10578441619873047,0.022375524044036865,-0.009766995906829834
1783080124077265200,1.62726513671875,0.04318714141845703,-0.023978322744369507,0.016102761030197144
1783080124097307100,1.64730712890625,0.08081340789794922,-0.01062697172164917,0.008185088634490967
1783080124117156900,1.667156982421875,0.07094478607177734,-0.02576163411140442,-0.0013080239295959473
1783080124137006600,1.687006591796875,0.028995513916015625,-0.030152946710586548,-0.005914032459259033
1783080124156663800,1.706663818359375,-0.004443168640136719,-0.0039116740226745605,0.0074468255043029785
1783080124176513300,1.72651318359375,-0.008958816528320312,-0.004203140735626221,-0.02624356746673584
1783080124196362800,1.74636279296875,-0.024976730346679688,-0.0009762942790985107,-0.03671708703041077
1783080124216405000,1.766405029296875,-0.047430992126464844,0.011946290731430054,-0.10732105374336243
1783080124236254700,1.786254638671875,-0.01833343505859375,-0.017182886600494385,-0.07625305652618408
1783080124255912000,1.805911865234375,-0.040973663330078125,-0.03429269790649414,-0.02931368350982666
1783080124275761400,1.825761474609375,-0.03709888458251953,-0.019266724586486816,-0.061021268367767334
1783080124295611000,1.84561083984375,-0.10278987884521484,-0.015123456716537476,-0.0994737446308136
1783080124315653000,1.865653076171875,-0.10652637481689453,-0.016919255256652832,-0.11349755525588989
1783080124335502800,1.8855029296875,-0.015717506408691406,-0.06171904504299164,-0.10292860865592957
1783080124355352600,1.9053525390625,0.11849498748779297,-0.07789458334445953,0.007070332765579224
1783080124375202300,1.925202392578125,0.16297054290771484,-0.025657251477241516,0.08789330720901489
1783080124394859500,1.944859619140625,0.06054401397705078,0.02095004916191101,0.1854393482208252
1783080124414901500,1.964901611328125,-0.08469963073730469,0.06616447865962982,0.179188072681427
1783080124434751200,1.984751220703125,-0.08418083190917969,0.06555256247520447,0.08388599753379822
1783080124454408400,2.004408447265625,-0.04692649841308594,0.03802323341369629,0.05077400803565979
1783080124474258000,2.0242578125,0.03310680389404297,0.010822847485542297,0.06137573719024658
1783080124494107400,2.044107421875,0.034224510192871094,0.021283596754074097,0.014167457818984985
1783080124514149400,2.0641494140625,0.02149486541748047,0.0018805116415023804,0.026014059782028198
1783080124533999400,2.083999267578125,0.02526569366455078,0.015670806169509888,-0.00828281044960022
1783080124553656300,2.10365625,0.056555747985839844,-0.05282938480377197,-0.059936463832855225
1783080124573505800,2.123505859375,0.07764530181884766,-0.09095022082328796,-0.12698990106582642
1783080124593355500,2.14335546875,0.09830284118652344,-0.0653824657201767,-0.08133178949356079
1783080124613397500,2.1633974609375,0.0697946548461914,-0.06485305726528168,0.0369449257850647
1783080124633170200,2.183170166015625,-0.013402938842773438,-0.006386950612068176,0.027696192264556885
1783080124652942800,2.20294287109375,-0.16556262969970703,0.007034718990325928,-0.007367521524429321
1783080124672792300,2.222792236328125,-0.22473907470703125,0.01813754439353943,-0.005957514047622681
1783080124692642000,2.24264208984375,-0.09935188293457031,0.0009218156337738037,-0.05181124806404114
1783080124712645600,2.262645751953125,0.03554534912109375,-0.04454950988292694,-0.08981645107269287
1783080124732495600,2.28249560546875,0.12900161743164062,-0.04086823761463165,-0.07315099239349365
1783080124752191200,2.302191162109375,0.11777496337890625,-0.03330354392528534,-0.011738330125808716
1783080124772194800,2.32219482421875,0.07707500457763672,-0.002894863486289978,0.055589377880096436
1783080124791852000,2.34185205078125,0.007519721984863281,0.014853253960609436,0.04489278793334961
1783080124811894000,2.36189404296875,-0.05757904052734375,0.026066020131111145,0.06099289655685425
1783080124831551200,2.38155126953125,-0.08583354949951172,0.027990534901618958,0.10115993022918701
1783080124851400700,2.401400634765625,-0.08758068084716797,0.03139084577560425,0.1293109655380249
1783080124871250200,2.421250244140625,-0.008173942565917969,0.02945348620414734,0.07038623094558716
1783080124891099600,2.441099609375,0.006046295166015625,0.012172535061836243,0.027760714292526245
1783080124911142000,2.461141845703125,-0.06355476379394531,0.03857412934303284,-0.015629619359970093
1783080124930799000,2.480799072265625,-0.0175628662109375,0.017020687460899353,-0.05884641408920288
1783080124950687200,2.500687255859375,0.03353309631347656,0.010463789105415344,-0.07191440463066101
1783080124970498300,2.520498291015625,0.14555644989013672,-0.028899535536766052,0.002713710069656372
1783080124990540500,2.54054052734375,0.18003463745117188,0.021723240613937378,0.04776594042778015
1783080125010390300,2.560390380859375,0.04915046691894531,0.024817273020744324,0.09686702489852905
1783080125030240000,2.580239990234375,-0.04261016845703125,0.03133799135684967,0.09275484085083008
1783080125049897200,2.599897216796875,-0.03885173797607422,0.05074442923069,0.083102285861969
1783080125069785000,2.61978515625,-0.06526470184326172,0.012627795338630676,0.07296139001846313
1783080125089596200,2.63959619140625,-0.023609161376953125,0.01962016522884369,-0.00806504487991333
1783080125109638400,2.659638427734375,-0.0737457275390625,0.05271604657173157,-0.030443429946899414
1783080125129488100,2.679488037109375,-0.04135322570800781,0.032976046204566956,0.01575222611427307
1783080125149145300,2.699145263671875,-0.04482269287109375,0.012787863612174988,0.02580168843269348
1783080125168994800,2.718994873046875,0.1277170181274414,-0.04034070670604706,-0.08785614371299744
1783080125188844300,2.73884423828125,0.08646678924560547,-0.053636595606803894,-0.09730824828147888
1783080125208886500,2.758886474609375,0.13245391845703125,-0.038146838545799255,-0.08542731404304504
1783080125228543700,2.778543701171875,-0.008218765258789062,-0.006262153387069702,-0.03799724578857422
1783080125248394000,2.79839404296875,-0.10961437225341797,0.025442764163017273,-0.04803338646888733
1783080125268468000,2.818468017578125,-0.1590862274169922,0.02098466455936432,0.005141109228134155
1783080125288288800,2.838288818359375,-0.12847137451171875,0.011918798089027405,0.0008779466152191162
1783080125308138000,2.858137939453125,0.03310394287109375,0.006095677614212036,-0.01667460799217224
1783080125327987000,2.877987060546875,0.14529037475585938,-0.0020032376050949097,-0.035779207944869995
1783080125347836400,2.89783642578125,0.09182929992675781,-0.008675053715705872,0.026570945978164673
1783080125367685600,2.917685546875,-0.04526996612548828,0.014832571148872375,0.06990617513656616
1783080125387519500,2.93751953125,-0.008808135986328125,0.008396759629249573,0.028535455465316772
1783080125407218200,2.95721826171875,-0.008387565612792969,-0.019842714071273804,-0.050549983978271484
1783080125427085600,2.97708544921875,0.07526969909667969,-0.04517069458961487,-0.05469319224357605
1783080125447089200,2.997089111328125,-0.01982593536376953,0.007844090461730957,0.0224151611328125
1783080125466697000,3.016697021484375,-0.06984710693359375,0.0013613700866699219,0.014727115631103516
1783080125486641000,3.036640869140625,-0.08819580078125,-0.016798585653305054,-0.07005983591079712
1783080125506642000,3.056641845703125,-0.0020694732666015625,-0.006757214665412903,-0.1088111400604248
1783080125526489600,3.076489501953125,0.051025390625,-0.05649943649768829,-0.06195804476737976
1783080125546322200,3.096322265625,0.058548927307128906,-0.04842934012413025,-0.05189734697341919
1783080125566019600,3.11601953125,0.1145477294921875,-0.0370364636182785,-0.10474526882171631
1783080125585866500,3.135866455078125,0.025122642517089844,0.0006597042083740234,-0.026889562606811523
1783080125605699000,3.155698974609375,-0.03570079803466797,0.0009712576866149902,0.08272752165794373
1783080125625739000,3.175739013671875,-0.15232372283935547,0.0451522171497345,0.14068415760993958
1783080125645571300,3.1955712890625,-0.2398815155029297,0.07089397311210632,0.11236265301704407
1783080125665284400,3.215284423828125,-0.12352943420410156,0.07133778929710388,0.10470768809318542
1783080125685270500,3.2352705078125,0.03292655944824219,0.0015289932489395142,0.031658679246902466
1783080125704983600,3.254983642578125,0.18673324584960938,-0.016588807106018066,-0.032516270875930786
1783080125724985000,3.274985107421875,0.20118427276611328,-0.0036477893590927124,-0.018951088190078735
1783080125744818000,3.29481787109375,0.03933238983154297,-0.019169360399246216,0.005117326974868774
1783080125764531200,3.31453125,-0.010499000549316406,-0.010087177157402039,-0.05704981088638306
1783080125784517600,3.334517578125,0.06628799438476562,-0.043644219636917114,-0.17063316702842712
1783080125804230700,3.354230712890625,0.11033153533935547,-0.017307773232460022,-0.13211101293563843
1783080125824232700,3.374232666015625,0.0580291748046875,-0.016123950481414795,0.013186156749725342
1783080125844062000,3.39406201171875,-0.06408405303955078,0.005380287766456604,0.05688074231147766
1783080125863725600,3.4137255859375,-0.14302349090576172,0.03642040491104126,-0.006637394428253174
1783080125883611100,3.433611083984375,-0.1663665771484375,0.05685459077358246,0.0442468523979187
1783080125903443700,3.453443603515625,-0.04552650451660156,0.027601435780525208,0.12536194920539856
1783080125923483400,3.4734833984375,0.04813385009765625,-0.013998866081237793,0.16404354572296143
1783080125943315700,3.493315673828125,0.1504230499267578,-0.008723124861717224,0.05929112434387207
1783080125963013000,3.51301318359375,0.14540481567382812,-0.005777403712272644,0.007440537214279175
1783080125982859800,3.53285986328125,-0.007251739501953125,-0.03955844044685364,0.0053005218505859375
1783080126002692400,3.5526923828125,-0.06920242309570312,0.028653457760810852,-0.031167209148406982
1783080126022731800,3.572731689453125,-0.14329814910888672,-0.0028440654277801514,-0.07023856043815613
1783080126042560500,3.592560546875,-0.20099925994873047,-0.012476116418838501,-0.06675294041633606
1783080126062220000,3.612219970703125,-0.11092376708984375,0.011161163449287415,-0.11781272292137146
1783080126082071300,3.6320712890625,-0.017167091369628906,0.019426196813583374,-0.12657979130744934
1783080126101941800,3.651941650390625,0.10796546936035156,-0.013970211148262024,-0.06703433394432068
1783080126121981000,3.67198095703125,0.14550399780273438,-0.017819955945014954,-0.03380623459815979
1783080126141809400,3.691809326171875,0.1103668212890625,-0.007216617465019226,0.04322543740272522
1783080126161468700,3.71146875,0.1692800521850586,0.03913979232311249,0.08771049976348877
1783080126181319700,3.731319580078125,0.09214115142822266,0.05841408669948578,0.18250195682048798
1783080126201190100,3.751190185546875,0.015191078186035156,0.06026920676231384,0.11665153503417969
1783080126221229600,3.7712294921875,-0.12182235717773438,0.08250409364700317,0.1068507730960846
1783080126241061600,3.7910615234375,-0.16177082061767578,0.054411351680755615,0.08978486061096191
1783080126260774100,3.810774169921875,-0.06615257263183594,0.047938838601112366,0.03594088554382324
1783080126280760300,3.83076025390625,0.00775909423828125,0.01646178960800171,-0.06144446134567261
1783080126300473000,3.85047314453125,0.1255483627319336,-0.0063287317752838135,-0.11085981130599976
1783080126320474600,3.870474609375,0.07027244567871094,0.0022010058164596558,-0.14769375324249268
1783080126340322800,3.89032275390625,0.042305946350097656,-0.032779350876808167,-0.09584710001945496
1783080126360151800,3.91015185546875,-0.003139495849609375,-0.018393084406852722,-0.06670704483985901
1783080126379831600,3.92983154296875,0.08956718444824219,-0.03453676402568817,-0.037571877241134644
1783080126399871700,3.949871826171875,0.02660655975341797,-0.01836438477039337,-0.0018224716186523438
1783080126419701000,3.969700927734375,-0.004199028015136719,0.0011135190725326538,0.03883257508277893
1783080126439361000,3.989361083984375,-0.2075653076171875,-0.03191767632961273,0.09829923510551453
1783080126459212500,4.009212646484375,-0.2445230484008789,-0.0008020550012588501,0.09854725003242493
1783080126479063800,4.029063720703125,-0.2387523651123047,-0.02593986690044403,0.14218345284461975
1783080126498934300,4.048934326171875,-0.07135295867919922,-0.03483124077320099,0.11581435799598694
1783080126518954500,4.06895458984375,0.06496906280517578,-0.05303336679935455,0.02770894765853882
1783080126538633000,4.088633056640625,0.23156356811523438,-0.06032584607601166,-0.1276942789554596
1783080126558672400,4.10867236328125,0.26323509216308594,-0.1004485934972763,-0.1504770815372467
1783080126578504700,4.128504638671875,0.17153644561767578,-0.08319588750600815,-0.17440372705459595
1783080126598217500,4.148217529296875,0.057468414306640625,-0.012223750352859497,-0.19952332973480225
1783080126618219000,4.168218994140625,-0.07624340057373047,0.018973857164382935,-0.12188246846199036
1783080126638048000,4.188048095703125,-0.1893138885498047,0.05133548378944397,-0.0025852620601654053
1783080126657711600,4.207711669921875,-0.08329010009765625,0.060964614152908325,0.0294630229473114
1783080126677616400,4.227616455078125,-0.10136127471923828,0.056423723697662354,-0.00011962652206420898
1783080126697618000,4.247617919921875,-0.0079498291015625,0.03185689449310303,-0.00295981764793396
1783080126717450800,4.26745068359375,0.0012540817260742188,0.007581993937492371,0.0265389084815979
1783080126737148200,4.287148193359375,-0.0011758804321289062,0.00039690732955932617,0.04935470223426819
1783080126756999000,4.3069990234375,-0.019600868225097656,0.046567320823669434,0.11601319909095764
1783080126776845600,4.326845458984375,-0.02350139617919922,0.040384918451309204,0.19156210124492645
1783080126796678100,4.34667822265625,0.014138221740722656,0.04880344867706299,0.1105029284954071
1783080126816717600,4.366717529296875,0.04120826721191406,-0.0025313496589660645,-0.007302999496459961
1783080126836565200,4.386565185546875,0.07688617706298828,-0.012707903981208801,-0.053322821855545044
1783080126856413400,4.406413330078125,0.14609622955322266,0.007819831371307373,-0.02813681960105896
1783080126876246300,4.426246337890625,0.11113643646240234,-0.00579245388507843,-0.010807424783706665
1783080126895959800,4.445959716796875,0.07741069793701172,-0.002758339047431946,-0.06627553701400757
1783080126915961600,4.465961669921875,0.023960113525390625,-0.006531059741973877,-0.10526052117347717
1783080126935810300,4.485810302734375,-0.07396507263183594,-0.006734400987625122,-0.02475959062576294
1783080126955659000,4.505658935546875,-0.020461082458496094,0.0029254406690597534,-0.012755364179611206
1783080126975508000,4.525508056640625,-0.059058189392089844,-0.013167932629585266,-0.03957375884056091
1783080126995357000,4.54535693359375,-0.08707427978515625,-0.023241817951202393,-0.037449389696121216
1783080127015206100,4.5652060546875,-0.1027212142944336,0.00520499050617218,-0.063591867685318
1783080127035055400,4.585055419921875,-0.15733051300048828,0.02692614495754242,0.022715389728546143
1783080127054904800,4.60490478515625,-0.092041015625,0.009805798530578613,0.0488966703414917
1783080127074754000,4.624754150390625,0.03807353973388672,0.024907484650611877,0.016387343406677246
1783080127094603500,4.644603515625,0.09663772583007812,-0.0038516968488693237,0.016172289848327637
1783080127114453000,4.664452880859375,0.11177444458007812,-0.011402621865272522,0.034274667501449585
1783080127134291000,4.684291015625,0.1080789566040039,-0.0004460364580154419,0.026522397994995117
1783080127154039000,4.7040390625,0.03743267059326172,0.006964489817619324,0.0047460198402404785
1783080127174003500,4.72400341796875,-0.03545188903808594,-0.0038596391677856445,0.02765578031539917
1783080127193852700,4.743852783203125,-0.12671852111816406,0.0258408784866333,0.06448078155517578
1783080127213686500,4.7636865234375,-0.1040201187133789,0.02742995321750641,0.04859113693237305
1783080127233385000,4.783385009765625,-0.15400314331054688,0.015843048691749573,0.028992176055908203
1783080127253252400,4.80325244140625,-0.04251575469970703,-0.009843751788139343,0.019654661417007446
1783080127273235200,4.823235107421875,0.0026903152465820312,0.004559174180030823,-0.024065881967544556
1783080127292915000,4.8429150390625,0.09019184112548828,-0.03329390287399292,-0.03674119710922241
1783080127312939800,4.862939697265625,0.14698028564453125,-0.056913331151008606,-0.06774184107780457
1783080127332633300,4.88263330078125,0.19759273529052734,-0.06542179733514786,-0.07079422473907471
1783080127352466000,4.9024658203125,0.1935110092163086,-0.019384190440177917,-0.041195303201675415
1783080127372486700,4.922486572265625,0.02059459686279297,0.022612720727920532,0.05443856120109558
1783080127392146000,4.94214599609375,-0.13723468780517578,0.034739598631858826,0.11315456032752991
1783080127411997200,4.9619970703125,-0.1302804946899414,0.0558486133813858,0.012316226959228516
1783080127431848000,4.981847900390625,-0.09134483337402344,0.029210194945335388,-0.03154340386390686
1783080127451718100,5.00171826171875,0.025083541870117188,-0.002194836735725403,0.0009593665599822998
1783080127471737900,5.02173779296875,0.08666801452636719,0.02606368064880371,-0.001921921968460083
1783080127491396600,5.041396728515625,0.016556739807128906,-0.008400887250900269,0.0445917546749115
1783080127511251200,5.061251220703125,0.009016990661621094,-0.009299874305725098,-0.022262275218963623
1783080127531139300,5.081139404296875,0.05266571044921875,-0.01448647677898407,-0.043463438749313354
1783080127551004700,5.101004638671875,0.06476783752441406,-0.04851272702217102,-0.04731827974319458
1783080127570990000,5.120989990234375,0.03258228302001953,-0.013960957527160645,0.001352936029434204
1783080127590686200,5.140686279296875,-0.02625560760498047,0.007230475544929504,0.02968171238899231
1783080127610536400,5.160536376953125,-0.08785533905029297,0.030659541487693787,0.07209733128547668
1783080127630386400,5.180386474609375,-0.11504936218261719,0.02024923264980316,0.06381836533546448
1783080127650252000,5.200251953125,-0.06507396697998047,0.042223647236824036,0.010961681604385376
1783080127670237400,5.220237548828125,-0.019144058227539062,0.01095956563949585,0.0036183297634124756
1783080127689949400,5.239949462890625,0.03450202941894531,-0.009009048342704773,0.026789873838424683
1783080127709935400,5.259935302734375,0.024094581604003906,-0.0171927809715271,0.018363595008850098
1783080127729647600,5.279647705078125,0.06969738006591797,-0.025876909494400024,-0.027431011199951172
1783080127749649000,5.29964892578125,-0.022843360900878906,-0.07278949022293091,-0.08291876316070557
1783080127769481700,5.319481689453125,-0.015055656433105469,-0.061066389083862305,-0.12192553281784058
1783080127789179000,5.339178955078125,-0.058386802673339844,-0.05762737989425659,-0.07632529735565186
1783080127809029600,5.359029541015625,-0.1604471206665039,-0.01815834641456604,0.019463717937469482
1783080127828896000,5.37889599609375,-0.1689300537109375,0.01947326958179474,0.057370126247406006
1783080127848897300,5.398897216796875,-0.16808700561523438,0.011539697647094727,0.009361296892166138
1783080127868745200,5.4187451171875,-0.02614879608154297,-0.013308793306350708,-0.05294179916381836
1783080127888578300,5.438578369140625,0.11082267761230469,-0.007663369178771973,-0.054322659969329834
1783080127908275700,5.458275634765625,0.10915660858154297,-0.03823317587375641,0.05451023578643799
1783080127928142300,5.478142333984375,0.18663978576660156,0.022923409938812256,0.018706291913986206
1783080127948128800,5.498128662109375,0.08806037902832031,0.056593239307403564,-0.03246840834617615
1783080127967826000,5.517825927734375,0.01581859588623047,0.051855653524398804,0.005667448043823242
1783080127987672800,5.5376728515625,-0.05178260803222656,0.07706691324710846,0.08040240406990051
1783080128007505400,5.55750537109375,-0.03359699249267578,0.0433216392993927,0.1272394210100174
1783080128027544800,5.577544921875,0.04198265075683594,0.045495688915252686,-0.010138154029846191
1783080128047377400,5.59737744140625,0.11252117156982422,0.03504940867424011,-0.11483976244926453
1783080128067070500,5.617070556640625,0.0855722427368164,-0.022601693868637085,-0.07808858156204224
1783080128086883600,5.636883544921875,0.010912895202636719,-0.02674219012260437,0.0006850659847259521
1783080128106754000,5.656754150390625,-0.03096294403076172,-0.020186245441436768,0.07581448554992676
1783080128126793700,5.676793701171875,-0.024930953979492188,-0.006144672632217407,0.0665314793586731
1783080128146641400,5.696641357421875,0.0016393661499023438,-0.038226380944252014,-0.023320525884628296
1783080128166474000,5.716473876953125,-0.08166790008544922,-0.0284041166305542,-0.043103933334350586
1783080128186171400,5.73617138671875,-0.0904226303100586,0.002149522304534912,0.043979912996292114
1783080128206037800,5.756037841796875,-0.06431865692138672,0.03434927761554718,0.08856382966041565
1783080128226039600,5.77603955078125,-0.1039276123046875,-0.006535783410072327,0.08411848545074463
1783080128245868300,5.795868408203125,0.022081375122070312,-0.0028130710124969482,0.018552720546722412
1783080128265532200,5.8155322265625,0.09294700622558594,0.001364096999168396,0.02639031410217285
1783080128285437000,5.83543701171875,0.1407146453857422,-0.005744829773902893,0.026226282119750977
1783080128305438500,5.8554384765625,0.08990764617919922,-0.046811193227767944,0.001187443733215332
1783080128325286400,5.875286376953125,0.050121307373046875,-0.01133638620376587,-0.07608106732368469
1783080128345115600,5.89511572265625,-0.06461906433105469,-0.020843282341957092,-0.048908889293670654
1783080128364795100,5.914795166015625,-0.14329147338867188,0.03420396149158478,-0.015648752450942993
1783080128384816000,5.934816162109375,-0.09236526489257812,0.019996166229248047,-0.004555732011795044
1783080128404495400,5.954495361328125,-0.06630802154541016,-0.004604071378707886,-0.06736600399017334
1783080128424535300,5.974535400390625,0.028591156005859375,-0.005069345235824585,-0.0745939314365387
1783080128444364500,5.994364501953125,-0.0394134521484375,0.04853908717632294,-0.0505429208278656
1783080128464028200,6.014028076171875,-0.038384437561035156,0.04990449547767639,-0.014797568321228027
1783080128483917300,6.033917236328125,0.04335594177246094,0.01947467029094696,0.018700897693634033
1783080128503783400,6.053783447265625,0.180511474609375,-0.030518382787704468,0.006581783294677734
1783080128523785000,6.073784912109375,0.2417449951171875,0.008517637848854065,0.014156967401504517
1783080128543613700,6.09361376953125,0.15050792694091797,0.06293916702270508,0.028993874788284302
1783080128563273200,6.113273193359375,-0.025640487670898438,0.07125335931777954,0.11281168460845947
1783080128583128600,6.133128662109375,-0.07789134979248047,0.05035501718521118,0.0906485915184021
1783080128603032800,6.15303271484375,-0.06599712371826172,0.0234859436750412,-0.0014753937721252441
1783080128623014700,6.1730146484375,-0.047514915466308594,0.016402587294578552,-0.01420372724533081
1783080128642674000,6.192673828125,-0.0366363525390625,0.029346421360969543,-0.021210193634033203
1783080128662524700,6.212524658203125,-0.019324302673339844,0.012144401669502258,-0.04413554072380066
1783080128682375400,6.23237548828125,0.02501964569091797,-0.012022629380226135,-0.059138476848602295
1783080128702245400,6.252245361328125,0.03800773620605469,-0.005376994609832764,-0.03827047348022461
1783080128722284500,6.272284423828125,0.07154560089111328,-0.012233033776283264,-0.03478604555130005
1783080128742112500,6.292112548828125,-0.020938873291015625,-0.026380687952041626,-0.01593807339668274
1783080128761771800,6.311771728515625,-0.00153350830078125,-0.033602192997932434,-0.05380451679229736
1783080128781626600,6.331626708984375,-0.09404659271240234,-0.009646639227867126,-0.01923602819442749
1783080128801530400,6.3515302734375,-0.09785938262939453,-0.03007793426513672,0.012663215398788452
1783080128821516000,6.37151611328125,-0.06906890869140625,-0.009186193346977234,0.008730977773666382
1783080128841212400,6.39121240234375,0.028197288513183594,-0.021259114146232605,-0.03105112910270691
1783080128861062700,6.411062744140625,0.041088104248046875,-0.06619957089424133,-0.027809739112854004
1783080128880909000,6.430908935546875,-0.01577472686767578,-0.032317087054252625,-0.0027704834938049316
1783080128900740900,6.450740966796875,0.021909713745117188,0.005261659622192383,0.009450376033782959
1783080128920780000,6.470780029296875,0.09761619567871094,-0.02425605058670044,-0.05154106020927429
1783080128940608300,6.490608154296875,0.057435035705566406,-0.010809332132339478,-0.06174710392951965
1783080128960267500,6.510267578125,-0.0160675048828125,0.03633713722229004,0.011804461479187012
1783080128980118500,6.530118408203125,-0.14734649658203125,0.0755201131105423,0.1165696382522583
1783080128999989000,6.549989013671875,-0.2209768295288086,0.07561194896697998,0.11858651041984558
1783080129020028200,6.570028076171875,-0.08176612854003906,0.04056183993816376,0.049968868494033813
1783080129039856400,6.5898564453125,-0.02864360809326172,0.04874469339847565,-0.04677993059158325
1783080129059515600,6.609515625,0.034384727478027344,0.003967687487602234,0.04274377226829529
1783080129079366700,6.62936669921875,0.162689208984375,-0.019302546977996826,0.09578821063041687
1783080129099236900,6.64923681640625,0.37275028228759766,-0.07759574800729752,0.027924925088882446
1783080129119261000,6.669260986328125,0.2149944305419922,0.021684005856513977,-0.12819859385490417
1783080129138957300,6.688957275390625,-0.025498390197753906,0.016261011362075806,-0.07232335209846497
1783080129158807600,6.7088076171875,-0.2166757583618164,0.04152478277683258,-0.037116169929504395
1783080129178657500,6.728657470703125,-0.10988426208496094,-0.030059263110160828,0.021062225103378296
