time,seconds_elapsed,z,y,x
1783080113953207300,0.081207275390625,0.14324188232421875,0.01088571548461914,0.036689579486846924
1783080113972994300,0.100994384765625,0.17192840576171875,-0.1097104549407959,0.11709731817245483
1783080113992843500,0.120843505859375,0.0766754150390625,0.27699023485183716,0.13014501333236694
1783080114012678100,0.14067822265625,0.014892578125,0.09492379426956177,0.1774502992630005
1783080114032376800,0.160376953125,-0.047252655029296875,-0.007104277610778809,0.10577988624572754
1783080114052244500,0.180244384765625,-0.031078338623046875,0.10705095529556274,0.0029786229133605957
1783080114072231400,0.2002314453125,0.03542613983154297,0.03966599702835083,-0.041658252477645874
1783080114091929300,0.219929443359375,0.07492351531982422,-0.03315013647079468,-0.10086092352867126
1783080114111780600,0.239780517578125,0.1504974365234375,0.011313021183013916,-0.016273319721221924
1783080114131631400,0.25963134765625,0.20976638793945312,-0.01471567153930664,0.13563454151153564
1783080114151497700,0.279497802734375,0.10509777069091797,0.044744908809661865,0.1551526039838791
1783080114171483600,0.299483642578125,0.18471908569335938,-0.014084994792938232,0.1914607286453247
1783080114191196200,0.319196044921875,0.1456918716430664,-0.0025336742401123047,0.09327185153961182
1783080114211182300,0.339182373046875,0.25340843200683594,0.009634852409362793,-0.09184560179710388
1783080114230879500,0.35887939453125,0.2070016860961914,-0.00778043270111084,-0.15922489762306213
1783080114250745900,0.378745849609375,0.14438533782958984,-0.009040296077728271,-0.06543436646461487
1783080114270731800,0.398731689453125,0.010516166687011719,-0.00856846570968628,0.08200126886367798
1783080114290428700,0.4184287109375,-0.0265655517578125,0.055021464824676514,0.12188386917114258
1783080114310279400,0.438279541015625,-0.1344928741455078,0.0188177227973938,0.14155125617980957
1783080114330129700,0.458129638671875,-0.19035720825195312,0.014790534973144531,0.12049916386604309
1783080114349995800,0.477995849609375,-0.18658447265625,0.05139368772506714,0.06959159672260284
1783080114369999400,0.497999267578125,-0.2132740020751953,0.06751161813735962,0.020018279552459717
1783080114389605600,0.517605712890625,-0.10343074798583984,0.10395669937133789,-0.019271671772003174
1783080114409533200,0.537533203125,-0.15057086944580078,0.0931849479675293,0.1387948989868164
1783080114429382400,0.55738232421875,0.06312847137451172,0.035631000995635986,0.07502761483192444
1783080114449247500,0.57724755859375,0.14513015747070312,-0.0023981332778930664,-0.08758726716041565
1783080114469247700,0.597247802734375,0.16034603118896484,0.07241016626358032,-0.2491915225982666
1783080114489079600,0.61707958984375,0.23804473876953125,0.05044412612915039,-0.19302058219909668
1783080114508776200,0.636776123046875,0.16545772552490234,0.01708894968032837,0.056062594056129456
1783080114528626400,0.65662646484375,0.11433696746826172,-0.035802483558654785,0.13937488198280334
1783080114548492300,0.6764921875,0.03487586975097656,0.009958386421203613,0.013227611780166626
1783080114568493300,0.696493408203125,-0.014380455017089844,-0.010774850845336914,-0.07976338267326355
1783080114588325600,0.71632568359375,-0.034750938415527344,-0.028131961822509766,-0.09338933229446411
1783080114608019000,0.73601904296875,0.08617305755615234,-0.05872887372970581,-0.04380980134010315
1783080114627851300,0.755851318359375,0.09902763366699219,-0.08148014545440674,-0.00018990039825439453
1783080114647879400,0.77587939453125,0.059065818786621094,-0.07317066192626953,0.03397676348686218
1783080114667606300,0.795606201171875,-0.09931659698486328,0.016175687313079834,0.003118187189102173
1783080114687384600,0.815384521484375,-0.15311813354492188,0.017453551292419434,-0.03698629140853882
1783080114707288800,0.835288818359375,-0.1177358627319336,0.004266500473022461,-0.09037405252456665
1783080114727290000,0.8552900390625,-0.0050830841064453125,0.0006253719329833984,0.00823715329170227
1783080114747137800,0.8751376953125,-0.06980323791503906,0.010362505912780762,0.1979946792125702
1783080114766986000,0.894986083984375,-0.0491180419921875,0.03380352258682251,0.22275735437870026
1783080114786834200,0.914834228515625,-0.003931999206542969,0.062275469303131104,0.10099940001964569
1783080114806667500,0.93466748046875,-0.011098861694335938,0.042506515979766846,0.10171352326869965
1783080114826381000,0.954381103515625,0.021270751953125,0.046554505825042725,0.09847418963909149
1783080114846383400,0.97438330078125,0.050238609313964844,0.0018518567085266113,0.0643807053565979
1783080114886065400,1.0140654296875,0.1593332290649414,-0.02527707815170288,0.05835926532745361
1783080114905779200,1.033779296875,-0.004921913146972656,-0.04150497913360596,0.05133458971977234
1783080114925781500,1.053781494140625,-0.10531139373779297,0.017788827419281006,-0.11633336544036865
1783080114945611000,1.073611083984375,-0.1682891845703125,0.05400305986404419,-0.21160653233528137
1783080114965271300,1.093271240234375,-0.10062408447265625,0.00801163911819458,-0.12223893404006958
1783080114985142800,1.113142822265625,0.04298591613769531,-0.03296118974685669,0.02469983696937561
1783080115005182700,1.1331826171875,0.11299419403076172,-0.06564122438430786,0.09442660212516785
1783080115025031000,1.153031005859375,0.19038105010986328,0.04580873250961304,-0.013597935438156128
1783080115044864000,1.172864013671875,0.10552406311035156,0.03547579050064087,-0.012708008289337158
1783080115064561700,1.192561767578125,0.060721397399902344,-0.015896320343017578,-0.06370049715042114
1783080115084413000,1.212412841796875,0.031388282775878906,0.02042776346206665,-0.07212477922439575
1783080115104279300,1.232279296875,0.05134868621826172,0.03110414743423462,-0.016851484775543213
1783080115124281000,1.252281005859375,-0.033557891845703125,-0.025400519371032715,-0.0038673579692840576
1783080115144113700,1.27211376953125,-0.04328441619873047,-0.03993380069732666,-0.04929116368293762
1783080115163811000,1.29181103515625,-0.20995330810546875,0.07299226522445679,-0.006105005741119385
1783080115183662000,1.311662109375,-0.20011615753173828,-0.04168623685836792,0.016075104475021362
1783080115203528200,1.331528076171875,-0.26993656158447266,0.019572794437408447,0.008524537086486816
1783080115223529700,1.35152978515625,-0.21067523956298828,-0.08468633890151978,-0.008992612361907959
1783080115243377700,1.371377685546875,-0.038463592529296875,-0.018225789070129395,-0.15542155504226685
1783080115263226000,1.39122607421875,-0.0037822723388671875,-0.10197359323501587,-0.11184972524642944
1783080115283059200,1.41105908203125,-0.025007247924804688,-0.1443476676940918,-0.045103758573532104
1783080115302772700,1.430772705078125,-0.09147834777832031,-0.06798899173736572,-0.11423128843307495
1783080115322774800,1.45077490234375,-0.3249197006225586,-0.10888737440109253,-0.155681312084198
1783080115342608100,1.470608154296875,-0.08854198455810547,0.008509159088134766,-0.16554522514343262
1783080115362313700,1.490313720703125,0.01630687713623047,0.05314105749130249,-0.018004179000854492
1783080115382232600,1.510232666015625,0.23119544982910156,-0.031643450260162354,0.07108792662620544
1783080115402022700,1.530022705078125,0.41890907287597656,0.03588205575942993,0.0034196674823760986
1783080115422009000,1.550009033203125,0.33279991149902344,0.0487399697303772,0.03169530630111694
1783080115441706500,1.56970654296875,0.1809673309326172,0.07177102565765381,0.09700168669223785
1783080115461557200,1.58955712890625,-0.014346122741699219,0.16281509399414062,0.11908161640167236
1783080115481407700,1.60940771484375,-0.2355937957763672,0.1004554033279419,0.14346390962600708
1783080115501273900,1.62927392578125,-0.2647523880004883,0.16107064485549927,0.026589125394821167
1783080115521259800,1.649259765625,-0.13423824310302734,0.17732316255569458,0.037157297134399414
1783080115540972300,1.66897216796875,0.0653839111328125,0.08409440517425537,0.14414402842521667
1783080115560958200,1.688958251953125,0.23545360565185547,0.021618545055389404,0.16396866738796234
1783080115580655000,1.708655029296875,0.23643112182617188,0.028767943382263184,0.11805093288421631
1783080115600521200,1.728521240234375,0.1062002182006836,0.02154475450515747,0.039066046476364136
1783080115620522800,1.748522705078125,-0.0657796859741211,0.0312347412109375,0.03249885141849518
1783080115640355300,1.768355224609375,-0.14188098907470703,-0.00028264522552490234,0.03943870961666107
1783080115660052500,1.788052490234375,-0.1234130859375,-0.01392674446105957,-0.003998816013336182
1783080115679899400,1.8078994140625,-0.11290550231933594,-0.04959219694137573,-0.013748526573181152
1783080115699732000,1.82773193359375,0.0036001205444335938,-0.05407458543777466,-0.07626798748970032
1783080115719756300,1.84775634765625,0.07489395141601562,-0.08036231994628906,-0.08630803227424622
1783080115739453000,1.867452880859375,0.11164474487304688,-0.0469171404838562,-0.1619592010974884
1783080115759319000,1.887319091796875,-0.007519721984863281,-0.10058295726776123,-0.11563155055046082
1783080115779305000,1.907304931640625,-0.043857574462890625,-0.0601193904876709,-0.095683753490448
1783080115799017500,1.927017578125,-0.14166736602783203,0.011645019054412842,-0.036895036697387695
1783080115819018800,1.947018798828125,-0.17403697967529297,0.009591758251190186,-0.00952911376953125
1783080115838851300,1.966851318359375,-0.24503040313720703,0.002160489559173584,-0.06522145867347717
1783080115858548700,1.986548828125,0.00054168701171875,-0.009749948978424072,-0.11431819200515747
1783080115878399500,2.0063994140625,-0.04700756072998047,-0.05396699905395508,-0.007095813751220703
1783080115898265900,2.026265869140625,0.03497505187988281,-0.09836116433143616,0.007485061883926392
1783080115918251800,2.046251708984375,0.04027843475341797,-0.0071669816970825195,-0.09412074089050293
1783080115937948700,2.06594873046875,-0.11229228973388672,0.002922922372817993,0.018095821142196655
1783080115957799400,2.08579931640625,-0.16274166107177734,0.011591315269470215,0.082598477602005
1783080115977645800,2.105645751953125,0.0033197402954101562,0.014083027839660645,-0.044456541538238525
1783080115997478000,2.125477783203125,0.0639657974243164,0.10666462779045105,0.06821852922439575
1783080116017502000,2.145501953125,0.19047260284423828,-0.05132049322128296,0.2548920810222626
1783080116037198300,2.1651982421875,0.25078296661376953,0.07303610444068909,0.11582031846046448
1783080116057064200,2.185064208984375,0.05974769592285156,0.00427970290184021,0.020839601755142212
1783080116077065500,2.2050654296875,-0.11310482025146484,0.03855589032173157,-0.14073210954666138
1783080116116822300,2.244822265625,-0.2661609649658203,0.04132691025733948,-0.11453452706336975
1783080116136632300,2.26463232421875,-0.022231101989746094,0.10201475024223328,-0.13810372352600098
1783080116156454400,2.284454345703125,-0.038743019104003906,0.01749466359615326,-0.01966458559036255
1783080116176303900,2.304303955078125,-0.05861091613769531,0.048335134983062744,-0.06082034111022949
1783080116195999700,2.323999755859375,0.14003276824951172,0.12899194657802582,-0.06361919641494751
1783080116216003000,2.344003173828125,0.08909797668457031,0.0031390786170959473,-0.08970394730567932
1783080116235852800,2.363852783203125,0.18311500549316406,0.018386855721473694,-0.1803486943244934
1783080116255702500,2.38370263671875,-0.015425682067871094,0.013097748160362244,-0.11625021696090698
1783080116275398100,2.403398193359375,-0.0567169189453125,-0.014454692602157593,-0.05020487308502197
1783080116295247600,2.42324755859375,0.11600685119628906,0.009660810232162476,-0.09593385457992554
1783080116315251200,2.443251220703125,0.20633888244628906,-0.04651552438735962,-0.08405709266662598
1783080116335101000,2.463100830078125,0.05560302734375,-0.08312101662158966,0.030306607484817505
1783080116354796500,2.482796630859375,-0.0064182281494140625,0.05350935459136963,-0.02994181215763092
1783080116374646000,2.50264599609375,-0.10116100311279297,0.05035725235939026,0.09086894243955612
1783080116394649600,2.522649658203125,-0.12353992462158203,0.01660078763961792,0.12688332796096802
1783080116414499300,2.542499267578125,-0.0665283203125,0.050332993268966675,0.1224089115858078
1783080116434349000,2.56234912109375,0.009335517883300781,0.060653746128082275,0.13629551231861115
1783080116454044700,2.582044677734375,0.045467376708984375,0.061034590005874634,0.17029601335525513
1783080116473894100,2.60189404296875,0.15678977966308594,0.01910579204559326,0.19491571187973022
1783080116493743600,2.62174365234375,0.30846500396728516,0.024308353662490845,0.18148323893547058
1783080116513747200,2.641747314453125,0.2517986297607422,-0.05768971145153046,0.16287657618522644
1783080116533597000,2.661596923828125,0.09341716766357422,0.000893816351890564,0.1450490802526474
1783080116553292800,2.681292724609375,0.17184925079345703,0.060664400458335876,0.06578872352838516
1783080116573142300,2.701142333984375,-0.08114147186279297,0.00391775369644165,0.037552669644355774
1783080116592991700,2.72099169921875,-0.02500438690185547,0.03649401664733887,-0.04605850577354431
1783080116612995300,2.740995361328125,-0.059055328369140625,0.0364154577255249,0.0038638412952423096
1783080116632845000,2.760844970703125,-0.07111930847167969,-0.005430862307548523,0.06530560553073883
1783080116652541000,2.780541015625,-0.05935096740722656,0.08482013642787933,-0.02213907241821289
1783080116672544500,2.80054443359375,-0.008457183837890625,0.04478885233402252,0.06192253530025482
1783080116692240100,2.820240234375,0.02459239959716797,0.061475545167922974,0.10739168524742126
1783080116712243700,2.84024365234375,0.09796905517578125,0.09664788097143173,0.030411601066589355
1783080116731939300,2.859939208984375,0.15697193145751953,0.030885852873325348,0.032974183559417725
1783080116751788800,2.879788818359375,0.12173271179199219,-0.03190449997782707,0.06422588229179382
1783080116771638300,2.89963818359375,0.1228628158569336,0.047472551465034485,0.13951632380485535
1783080116791488000,2.919488037109375,0.1610097885131836,0.09975360333919525,0.19966977834701538
1783080116811491600,2.93949169921875,0.11209774017333984,0.04799233376979828,0.14799055457115173
1783080116831187200,2.959187255859375,0.1248311996459961,-0.023469828069210052,0.04157170653343201
1783080116851037000,2.979036865234375,0.035193443298339844,0.018076516687870026,-0.03289559483528137
1783080116870886400,2.998886474609375,-0.03282642364501953,-0.006448954343795776,0.09726712107658386
1783080116890736000,3.018736083984375,-0.01300048828125,0.006140679121017456,0.04422175884246826
1783080116910739700,3.03873974609375,0.026787757873535156,-0.06457077711820602,-0.05213111639022827
1783080116930435600,3.058435546875,0.030401229858398438,-0.042257461696863174,-0.026840627193450928
1783080116950285000,3.07828515625,-0.016852378845214844,-0.024952568113803864,0.0458541214466095
1783080116970134500,3.098134521484375,-0.060057640075683594,-0.008415162563323975,0.016345322132110596
1783080116989984300,3.117984375,-0.07172584533691406,-0.00781647115945816,-0.03330487012863159
1783080117009987800,3.13798779296875,-0.11320972442626953,-0.005440264940261841,-0.03391626477241516
1783080117029837600,3.157837646484375,-0.08856964111328125,0.027451112866401672,-0.02929064631462097
1783080117049533200,3.177533203125,-0.055637359619140625,0.022707439959049225,-0.02566543221473694
1783080117069383000,3.1973828125,-0.06764602661132812,-0.0075619518756866455,-0.03023669123649597
1783080117089386500,3.217386474609375,-0.049083709716796875,0.01344984769821167,-0.028003454208374023
1783080117109236200,3.237236328125,-0.08671951293945312,-0.00734846293926239,-0.02202191948890686
1783080117128932000,3.25693212890625,-0.11611652374267578,-0.009085550904273987,-0.06293249130249023
1783080117148935400,3.276935302734375,0.012701034545898438,0.019724830985069275,-0.10215872526168823
1783080117168785400,3.296785400390625,0.11606407165527344,-0.07486023008823395,-0.12731370329856873
1783080117188635100,3.31663525390625,0.16752147674560547,-0.09777110069990158,-0.10046190023422241
1783080117208484600,3.336484619140625,0.18059158325195312,-0.04952467978000641,-0.06138068437576294
1783080117228334300,3.356334228515625,0.08231925964355469,-0.03883259743452072,-0.0014679133892059326
1783080117248184000,3.37618408203125,0.024381637573242188,0.0032214224338531494,-0.025013655424118042
1783080117268033800,3.39603369140625,-0.15660381317138672,-0.005455866456031799,-0.03446012735366821
1783080117287883500,3.415883544921875,-0.2249755859375,0.009368747472763062,-0.0678560733795166
1783080117307733000,3.43573291015625,-0.18265151977539062,0.012222781777381897,-0.09732711315155029
1783080117327582700,3.455582763671875,-0.05190086364746094,-0.03777381777763367,-0.07101267576217651
1783080117347432400,3.475432373046875,0.005177497863769531,-0.09630747884511948,-0.010811954736709595
1783080117367282000,3.495281982421875,-0.07088851928710938,-0.057350337505340576,0.10258546471595764
1783080117387131600,3.515131591796875,-0.07726097106933594,0.024209126830101013,0.06257641315460205
1783080117406981400,3.5349814453125,-0.1859111785888672,-0.028941720724105835,0.09923970699310303
1783080117426830800,3.554830810546875,-0.17763996124267578,-0.04847710579633713,0.10723581910133362
1783080117446680600,3.5746806640625,-0.019023895263671875,-0.05484504997730255,0.034028708934783936
1783080117466530300,3.5945302734375,0.04185962677001953,-0.05813830345869064,0.06114122271537781
1783080117486379800,3.6143798828125,0.03131866455078125,-0.03349912166595459,0.04731103777885437
1783080117506229500,3.6342294921875,0.06937408447265625,0.024914897978305817,-0.006060659885406494
1783080117526079200,3.654079345703125,0.03416919708251953,0.042981989681720734,0.0336402952671051
1783080117545928700,3.6739287109375,0.06523990631103516,0.018991954624652863,0.09896507859230042
1783080117565778400,3.6937783203125,0.15569686889648438,0.02832566201686859,0.0022029876708984375
1783080117585628200,3.713628173828125,0.14583587646484375,0.05601642280817032,-0.04173445701599121
1783080117605477600,3.7334775390625,0.006783485412597656,0.05103906989097595,0.00684511661529541
1783080117625327400,3.753327392578125,-0.08352184295654297,0.07631437480449677,-0.03575518727302551
1783080117645176800,3.7731767578125,-0.04387378692626953,0.11196738481521606,-0.07602730393409729
1783080117665026600,3.793026611328125,-0.03364276885986328,0.08860064297914505,-0.008698105812072754
1783080117684876300,3.812876220703125,0.04825115203857422,0.04630674421787262,0.04511004686355591
1783080117704725800,3.832725830078125,0.06518077850341797,0.06669460982084274,-0.019290506839752197
1783080117724575500,3.852575439453125,0.0584259033203125,0.07762151211500168,-0.054080843925476074
1783080117744425200,3.87242529296875,0.037856101989746094,0.052593886852264404,-0.05079224705696106
1783080117764274700,3.892274658203125,0.015580177307128906,0.012240886688232422,-0.008583128452301025
1783080117784124400,3.91212451171875,0.012587547302246094,0.05143541842699051,-0.004406392574310303
1783080117803974100,3.93197412109375,-0.03873729705810547,0.015336081385612488,0.016350239515304565
1783080117823823600,3.95182373046875,-0.014163970947265625,0.010384522378444672,-0.026765167713165283
1783080117843673300,3.97167333984375,0.00007724761962890625,-0.007942691445350647,-0.08435094356536865
1783080117863523000,3.991523193359375,-0.06703662872314453,-0.006258927285671234,-0.0012916922569274902
1783080117883372500,4.01137255859375,-0.10155010223388672,0.038831599056720734,0.004422247409820557
1783080117903222300,4.03122216796875,-0.10498619079589844,0.03191695362329483,-0.02825450897216797
1783080117923071700,4.05107177734375,-0.11788177490234375,0.019644461572170258,-0.05930835008621216
1783080117942921500,4.07092138671875,0.013064384460449219,0.017024315893650055,-0.03622397780418396
1783080117962771200,4.090771240234375,0.1487588882446289,-0.016848184168338776,-0.040906280279159546
1783080117982620700,4.11062060546875,0.12729835510253906,-0.016963757574558258,0.0667632520198822
1783080118002316500,4.130316650390625,0.14857959747314453,0.016078859567642212,0.07211023569107056
1783080118022319900,4.15031982421875,0.09052753448486328,0.008336551487445831,0.08455219864845276
1783080118042015500,4.170015380859375,-0.07430267333984375,0.04296915978193283,0.09122011065483093
1783080118062018800,4.190018798828125,-0.07168006896972656,0.06087672710418701,0.11099588871002197
1783080118081868500,4.20986865234375,-0.07856559753417969,0.015800148248672485,0.1225084513425827
1783080118101564400,4.229564453125,-0.03199577331542969,-0.025678716599941254,0.04482024908065796
1783080118121414000,4.249413818359375,0.013091087341308594,0.009300552308559418,-0.03032088279724121
1783080118141263400,4.269263427734375,0.02428722381591797,0.00467468798160553,0.025707334280014038
1783080118161267000,4.289266845703125,0.002597808837890625,-0.00161820650100708,0.07767912745475769
1783080118180962600,4.308962646484375,-0.08311653137207031,-0.01545211672782898,0.0481032133102417
1783080118200812000,4.32881201171875,-0.1079568862915039,-0.03365162014961243,-0.03543049097061157
1783080118220815600,4.348815673828125,-0.11566734313964844,-0.007719293236732483,-0.09572294354438782
1783080118240511500,4.368511474609375,-0.023825645446777344,0.019525006413459778,-0.16880229115486145
1783080118260515000,4.38851513671875,-0.02322864532470703,-0.010829649865627289,-0.1081933081150055
1783080118280210700,4.408210693359375,-0.0249481201171875,0.024927198886871338,0.004910469055175781
1783080118300060200,4.42806005859375,-0.04036712646484375,0.04348957538604736,0.04600769281387329
1783080118319910000,4.447909912109375,0.025693893432617188,0.04995259642601013,-0.015456229448318481
1783080118339759400,4.46775927734375,0.050154685974121094,0.00852978229522705,-0.031223714351654053
1783080118359763000,4.487762939453125,0.13165855407714844,-0.020362243056297302,-0.014305084943771362
1783080118379458600,4.50745849609375,0.06931781768798828,0.0031748488545417786,0.025924742221832275
1783080118399308300,4.527308349609375,0.023087501525878906,0.008515067398548126,0.07317057251930237
1783080118419157800,4.54715771484375,0.022281646728515625,0.017683513462543488,0.053569018840789795
1783080118439007500,4.567007568359375,0.0769662857055664,-0.014016740024089813,0.09429332613945007
1783080118459011000,4.587010986328125,0.1344432830810547,-0.024033427238464355,0.1391664296388626
1783080118478706700,4.606706787109375,0.0906515121459961,-0.042621344327926636,0.13573157787322998
1783080118498556400,4.626556396484375,-0.06942272186279297,0.021702870726585388,0.09216196835041046
1783080118518406000,4.646406005859375,-0.15692138671875,0.032028064131736755,0.023909181356430054
1783080118538255600,4.666255615234375,-0.22316837310791016,0.04464486241340637,-0.12160825729370117
1783080118558259200,4.68625927734375,-0.18809127807617188,0.026137009263038635,-0.24548083543777466
1783080118577955000,4.705955078125,-0.122100830078125,0.011458799242973328,-0.23303300142288208
1783080118597804500,4.725804443359375,0.020407676696777344,-0.030096128582954407,-0.14074477553367615
1783080118617654000,4.745654052734375,0.1653766632080078,-0.019902095198631287,-0.16609781980514526
1783080118637503700,4.765503662109375,0.17852020263671875,-0.046702250838279724,-0.16025623679161072
1783080118657507300,4.78550732421875,0.08245563507080078,-0.04201517999172211,-0.16316470503807068
1783080118677203200,4.805203125,-0.08447551727294922,0.015716463327407837,-0.07796064019203186
1783080118697206800,4.825206787109375,-0.11163520812988281,0.0028583556413650513,-0.003748565912246704
1783080118716902400,4.84490234375,-0.1055440902709961,-0.009214982390403748,-0.01755225658416748
1783080118736752000,4.864752197265625,-0.07186031341552734,-0.03939944505691528,0.003930598497390747
1783080118756601600,4.8846015625,-0.011527061462402344,-0.025701627135276794,-0.03839200735092163
1783080118776605200,4.904605224609375,-0.039035797119140625,-0.036618709564208984,-0.016323357820510864
1783080118796301000,4.924301025390625,-0.09113407135009766,-0.04733826965093613,0.06381505727767944
1783080118816150500,4.944150634765625,0.059874534606933594,-0.05368947982788086,0.05973634123802185
1783080118836000000,4.964,0.07157707214355469,-0.047400712966918945,-0.0006693601608276367
1783080118855849700,4.983849609375,0.03223991394042969,0.011561237275600433,0.0506550669670105
1783080118875815000,5.00381494140625,-0.008189201354980469,0.07148653268814087,0.09434014558792114
1783080118895510500,5.023510498046875,-0.0012969970703125,0.06143152713775635,0.07968589663505554
1783080118915552800,5.043552734375,0.007613182067871094,0.05007453262805939,0.02109760046005249
1783080118935402500,5.063402587890625,0.12300395965576172,0.029356621205806732,0.02727377414703369
1783080118955098000,5.08309814453125,0.13503170013427734,0.0558270588517189,0.053389132022857666
1783080118974947600,5.102947509765625,0.09572792053222656,0.05017516762018204,0.0585421621799469
1783080118994797300,5.12279736328125,0.14105606079101562,0.012564614415168762,-0.004180550575256348
1783080119014801000,5.14280078125,0.10394763946533203,0.00295238196849823,0.0034658610820770264
1783080119034650600,5.162650634765625,-0.0035400390625,0.030907191336154938,0.020923316478729248
1783080119054500400,5.182500244140625,-0.021778106689453125,0.0380789190530777,0.0459766685962677
1783080119074196200,5.2021962890625,-0.041912078857421875,-0.014839798212051392,-0.03177744150161743
1783080119094045700,5.222045654296875,-0.0035495758056640625,-0.008536338806152344,-0.017932027578353882
1783080119114049300,5.24204931640625,0.012761116027832031,-0.03129890561103821,0.09277734160423279
1783080119133899000,5.26189892578125,-0.1472015380859375,-0.04594554007053375,0.15762802958488464
1783080119153594600,5.2815947265625,-0.16746902465820312,-0.018583521246910095,0.04467800259590149
1783080119173444000,5.301444091796875,-0.15714550018310547,-0.031081631779670715,-0.0859658420085907
1783080119193447700,5.32144775390625,-0.0848379135131836,-0.09155215322971344,-0.1280779242515564
1783080119213297400,5.34129736328125,-0.010484695434570312,-0.06908547878265381,-0.12563517689704895
1783080119233147400,5.3611474609375,0.09843921661376953,-0.09665108472108841,-0.1258310079574585
1783080119252843000,5.380843017578125,0.17830753326416016,-0.08109964430332184,-0.16912296414375305
1783080119272692500,5.4006923828125,0.18396472930908203,-0.06930192559957504,-0.062340885400772095
1783080119292542000,5.4205419921875,0.13170146942138672,-0.04020188748836517,0.013301223516464233
1783080119312545500,5.440545654296875,-0.0020923614501953125,0.010209143161773682,0.04146185517311096
1783080119332395300,5.460395263671875,-0.1522998809814453,0.029179677367210388,0.08417871594429016
1783080119352091100,5.480091064453125,-0.1424732208251953,0.027971938252449036,0.09307211637496948
1783080119372094500,5.500094482421875,-0.068328857421875,0.007856979966163635,0.000397413969039917
1783080119391790300,5.519790283203125,0.047306060791015625,-0.014921098947525024,-0.036791443824768066
1783080119411794000,5.5397939453125,0.11033153533935547,0.005966499447822571,-0.02552098035812378
1783080119431489500,5.559489501953125,0.0740499496459961,-0.006680667400360107,0.07882919907569885
1783080119451339000,5.579339111328125,0.04149913787841797,0.004770845174789429,0.16657158732414246
1783080119471188500,5.5991884765625,-0.022138595581054688,-0.00572630763053894,0.14701133966445923
1783080119491038200,5.6190380859375,-0.06746673583984375,0.04536661505699158,0.05185946822166443
1783080119511041800,5.639041748046875,-0.06987762451171875,0.018582642078399658,0.015630632638931274
1783080119530737400,5.6587373046875,-0.056061744689941406,-0.01122322678565979,0.04062092304229736
1783080119550587100,5.678587158203125,-0.0008993148803710938,-0.021372944116592407,0.009428620338439941
1783080119570436600,5.6984365234375,0.06167030334472656,-0.00511150062084198,-0.04979941248893738
1783080119590286000,5.7182861328125,0.022645950317382812,-0.04306435585021973,-0.07346481084823608
1783080119610290000,5.7382900390625,0.0011606216430664062,-0.007793694734573364,-0.10793894529342651
1783080119629985500,5.757985595703125,-0.04967784881591797,-0.0179145485162735,-0.055249184370040894
1783080119649835000,5.7778349609375,-0.057231903076171875,-0.021367281675338745,-0.03437495231628418
1783080119669684700,5.797684814453125,-0.013616561889648438,-0.048265814781188965,-0.0697508156299591
1783080119689534200,5.8175341796875,0.08172798156738281,-0.025744959712028503,-0.11938345432281494
1783080119709538000,5.8375380859375,0.053603172302246094,-0.024520650506019592,-0.03136652708053589
1783080119729233700,5.857233642578125,-0.024477005004882812,0.009754002094268799,0.00492432713508606
1783080119749083400,5.87708349609375,0.025012969970703125,-0.011474743485450745,0.00096893310546875
1783080119768932900,5.896932861328125,0.0032052993774414062,-0.004575997591018677,-0.010518848896026611
1783080119788782600,5.916782470703125,-0.033850669860839844,-0.01665443181991577,0.09834042191505432
1783080119808786200,5.9367861328125,-0.06491470336914062,0.029983848333358765,0.08369320631027222
1783080119828636000,5.956635986328125,-0.06514453887939453,0.02196177840232849,-0.010730177164077759
1783080119848331500,5.97633154296875,-0.0749826431274414,-0.01122903823852539,0.007658809423446655
1783080119868181200,5.99618115234375,0.054412841796875,-0.02630060911178589,0.08263373374938965
1783080119888030700,6.01603076171875,0.08489418029785156,-0.0011082589626312256,0.12370246648788452
1783080119908034600,6.03603466796875,0.01966094970703125,0.02695964276790619,0.08416981995105743
1783080119927730200,6.055730224609375,-0.14523696899414062,0.04932713508605957,0.078609898686409
1783080119947579600,6.07557958984375,-0.17284011840820312,0.04921357333660126,0.044184356927871704
1783080119967435800,6.095435791015625,-0.15337276458740234,0.012498468160629272,-0.003956854343414307
1783080119987492400,6.115492431640625,-0.009678840637207031,0.012227535247802734,-0.06158062815666199
1783080120027135000,6.155135009765625,0.12110233306884766,-0.046366870403289795,-0.10649234056472778
1783080120046984200,6.174984130859375,0.16577434539794922,-0.015224575996398926,-0.14583751559257507
1783080120066833700,6.194833740234375,0.12324333190917969,-0.024075105786323547,-0.12309181690216064
1783080120086667500,6.21466748046875,-0.019745826721191406,-0.018951505422592163,-0.07272779941558838
1783080120106381800,6.2343818359375,-0.058203697204589844,0.006878480315208435,-0.03168794512748718
1783080120126384400,6.25438427734375,-0.09530925750732422,0.018108904361724854,-0.03489106893539429
1783080120146218000,6.274218017578125,-0.057312965393066406,0.026382699608802795,-0.05383077263832092
1783080120165931800,6.293931884765625,-0.0763092041015625,0.017901450395584106,-0.03989318013191223
1783080120185918700,6.313918701171875,-0.07377815246582031,0.033381327986717224,0.042946845293045044
1783080120205632300,6.33363232421875,-0.02496623992919922,0.04465588927268982,0.09495054185390472
1783080120225634300,6.35363427734375,0.05914592742919922,0.03916506469249725,0.06681296229362488
1783080120245467600,6.373467529296875,0.13811111450195312,0.0015839934349060059,0.05131560564041138
1783080120265165600,6.39316552734375,0.11268997192382812,0.01819053292274475,0.06047669053077698
1783080120285016800,6.413016845703125,0.1067962646484375,0.03219512104988098,0.05722895264625549
1783080120304883200,6.43288330078125,0.04106903076171875,0.0268508642911911,0.1148921549320221
1783080120324885000,6.452885009765625,0.021360397338867188,0.035199105739593506,0.0659460723400116
1783080120344717600,6.472717529296875,0.016010284423828125,-0.009393513202667236,0.012104630470275879
1783080120364415200,6.492415283203125,-0.012155532836914062,-0.0345383882522583,0.0316275954246521
1783080120384266200,6.512266357421875,0.0047206878662109375,-0.0290604829788208,0.04358687996864319
1783080120404116700,6.53211669921875,-0.10391616821289062,-0.018061965703964233,0.008607417345046997
1783080120423982800,6.55198291015625,-0.15106582641601562,-0.017684146761894226,-0.031230062246322632
1783080120443984100,6.571984130859375,-0.17141056060791016,-0.005608394742012024,-0.07811355590820312
1783080120463816700,6.591816650390625,-0.05250740051269531,-0.002651393413543701,-0.064096599817276
1783080120483513900,6.611513916015625,0.08770751953125,-0.043494999408721924,-0.026808589696884155
1783080120503380200,6.631380126953125,0.17246150970458984,-0.052740633487701416,-0.005240321159362793
1783080120523381800,6.6513818359375,0.1945056915283203,-0.05388861894607544,-0.01936662197113037
1783080120543214300,6.67121435546875,0.10966682434082031,0.007711425423622131,0.003115326166152954
1783080120562911700,6.690911865234375,-0.03003215789794922,0.029329538345336914,0.07280540466308594
1783080120582762800,6.7107626953125,-0.19295978546142578,0.05637398362159729,0.06987175345420837
1783080120602613200,6.73061328125,-0.2281017303466797,0.04152587056159973,0.03017282485961914
1783080120622479400,6.750479248046875,-0.047145843505859375,0.016483962535858154,0.0017625689506530762
1783080120642465300,6.77046533203125,-0.0040836334228515625,0.004435673356056213,0.029692798852920532
1783080120662162200,6.790162109375,0.033161163330078125,-0.007940590381622314,0.007055103778839111
1783080120682012700,6.8100126953125,0.025114059448242188,0.020549461245536804,-0.04088291525840759
1783080120701878500,6.82987841796875,0.044948577880859375,-0.035750314593315125,-0.05623266100883484
1783080120721864200,6.8498642578125,0.0943145751953125,-0.03754255175590515,-0.05013516545295715
1783080120741560800,6.869560791015625,0.049663543701171875,-0.02928890287876129,-0.043538808822631836
1783080120761411300,6.889411376953125,-0.05118083953857422,-0.00945313274860382,-0.016619831323623657
1783080120781261600,6.909261474609375,-0.1001577377319336,0.022556081414222717,-0.015304744243621826
1783080120801127400,6.92912744140625,-0.1292247772216797,0.013666272163391113,0.01427227258682251
1783080120821112800,6.94911279296875,-0.06724739074707031,0.0012879669666290283,-0.0002957582473754883
1783080120840809700,6.968809814453125,0.013498306274414062,-0.028591662645339966,-0.02131587266921997
1783080120860660000,6.988659912109375,0.09635257720947266,0.008339166641235352,-0.0375669002532959
1783080120880510000,7.008510009765625,0.1000528335571289,0.035492926836013794,0.00811275839805603
1783080120900375800,7.028375732421875,0.03420448303222656,0.008587226271629333,0.037027567625045776
1783080120920361200,7.048361328125,0.040065765380859375,0.019178375601768494,-0.03468319773674011
1783080120960116000,7.088115966796875,0.007073402404785156,0.004568606615066528,0.03286340832710266
1783080120979915300,7.107915283203125,0.02323150634765625,0.011605575680732727,-0.012627929449081421
1783080120999765000,7.127764892578125,0.024820327758789062,0.003752976655960083,-0.043571650981903076
1783080121019614700,7.14761474609375,0.010073661804199219,0.002332031726837158,-0.016875773668289185
1783080121039464200,7.167464111328125,-0.05495452880859375,-0.02789488434791565,0.06552115082740784
1783080121059314000,7.18731396484375,-0.12694454193115234,0.004204452037811279,0.03691554069519043
1783080121079086300,7.20708642578125,-0.09930801391601562,0.03365245461463928,0.04960116744041443
1783080121098859000,7.22685888671875,-0.13079357147216797,-0.0018365830183029175,-0.07740864157676697
1783080121118862600,7.246862548828125,0.040320396423339844,-0.10976088047027588,-0.06491890549659729
1783080121138712300,7.26671240234375,0.2123575210571289,0.03485199809074402,-0.06743460893630981
1783080121158562000,7.28656201171875,-0.13265419006347656,-0.0949690192937851,0.1701098382472992
1783080121178257700,7.306257568359375,-0.05645179748535156,0.04087425768375397,0.07803148031234741
1783080121198107100,7.326107177734375,-0.09201812744140625,0.07666987180709839,0.03632238507270813
