time,seconds_elapsed,z,y,x
1783081028607332400,0.117332275390625,0.00013315795513335615,-0.0011984215816482902,-0.0003994738799519837
1783081028627027500,0.13702734375,0.00013315795513335615,-0.00013315795513335615,-0.0003994738799519837
1783081028646876400,0.15687646484375,0.00013315795513335615,-0.00013315795513335615,-0.0003994738799519837
1783081028666879200,0.176879150390625,0.0011984215816482902,-0.00013315795513335615,-0.0003994738799519837
1783081028686728400,0.196728515625,-0.0009321057004854083,-0.0011984215816482902,-0.0003994738799519837
1783081028706423600,0.216423583984375,-0.0009321057004854083,0.0009321057004854083,0.0006657897611148655
1783081028726272300,0.236272216796875,0.00013315795513335615,-0.00013315795513335615,0.0006657897611148655
1783081028746121200,0.256121337890625,0.00013315795513335615,-0.00013315795513335615,-0.0003994738799519837
1783081028766124300,0.276124267578125,0.00013315795513335615,0.0009321057004854083,-0.0003994738799519837
1783081028785973200,0.29597314453125,0.00013315795513335615,-0.00013315795513335615,-0.0003994738799519837
1783081028805668400,0.31566845703125,-0.0009321057004854083,-0.00013315795513335615,-0.0003994738799519837
1783081028825517300,0.335517333984375,0.00013315795513335615,-0.00013315795513335615,-0.0003994738799519837
1783081028845366300,0.3553662109375,0.00013315795513335615,-0.00013315795513335615,-0.0003994738799519837
1783081028865369000,0.375369140625,0.0011984215816482902,0.0009321057004854083,-0.0003994738799519837
1783081028885218300,0.39521826171875,0.00013315795513335615,-0.00013315795513335615,0.0006657897611148655
1783081028904913400,0.414913330078125,-0.0009321057004854083,-0.00013315795513335615,-0.0003994738799519837
1783081028924916200,0.434916259765625,0.00013315795513335615,-0.00013315795513335615,-0.0003994738799519837
1783081028944611300,0.454611328125,0.00013315795513335615,-0.00013315795513335615,0.0006657897611148655
1783081028964614400,0.474614501953125,0.00013315795513335615,0.0009321057004854083,0.0006657897611148655
1783081028984463400,0.49446337890625,0.00013315795513335615,-0.00013315795513335615,-0.0003994738799519837
1783081029004158500,0.514158447265625,0.00013315795513335615,-0.0011984215816482902,0.0006657897611148655
1783081029024161300,0.534161376953125,0.00013315795513335615,-0.00013315795513335615,-0.0003994738799519837
1783081029044010500,0.554010498046875,0.00013315795513335615,-0.00013315795513335615,-0.0003994738799519837
1783081029063859700,0.573859619140625,0.00013315795513335615,-0.0011984215816482902,0.0006657897611148655
1783081029083708700,0.593708740234375,0.00013315795513335615,-0.00013315795513335615,-0.0003994738799519837
1783081029103365400,0.613365478515625,0.00013315795513335615,-0.00013315795513335615,-0.0003994738799519837
1783081029123214000,0.633214111328125,0.00013315795513335615,-0.00013315795513335615,-0.0003994738799519837
1783081029143255300,0.65325537109375,0.00013315795513335615,0.0009321057004854083,-0.0003994738799519837
1783081029162912000,0.672912109375,0.00013315795513335615,0.0009321057004854083,-0.0003994738799519837
1783081029182953200,0.692953125,0.00013315795513335615,-0.00013315795513335615,-0.0003994738799519837
1783081029202802400,0.712802490234375,0.00013315795513335615,-0.00013315795513335615,-0.0003994738799519837
1783081029222651400,0.7326513671875,0.00013315795513335615,-0.00013315795513335615,-0.0003994738799519837
1783081029242500600,0.75250048828125,0.00013315795513335615,-0.00013315795513335615,-0.0003994738799519837
1783081029262195700,0.77219580078125,-0.0009321057004854083,-0.00013315795513335615,-0.0003994738799519837
1783081029282121500,0.79212158203125,0.00013315795513335615,-0.0011984215816482902,-0.0003994738799519837
1783081029301855000,0.81185498046875,-0.0009321057004854083,-0.00013315795513335615,-0.0003994738799519837
1783081029321896200,0.831896240234375,-0.0009321057004854083,-0.00013315795513335615,-0.0003994738799519837
1783081029341745400,0.851745361328125,0.00013315795513335615,-0.00013315795513335615,-0.001464737462811172
1783081029361402000,0.871402099609375,0.00013315795513335615,0.0009321057004854083,0.0006657897611148655
1783081029381250800,0.891250732421875,0.00013315795513335615,0.0009321057004854083,0.0006657897611148655
1783081029401099500,0.911099609375,-0.0009321057004854083,-0.0011984215816482902,-0.0003994738799519837
1783081029421141200,0.931141357421875,-0.0009321057004854083,-0.00013315795513335615,-0.0003994738799519837
1783081029440990200,0.950990234375,0.00013315795513335615,-0.00013315795513335615,-0.0003994738799519837
1783081029460647000,0.97064697265625,0.00013315795513335615,-0.0011984215816482902,-0.0003994738799519837
1783081029480688000,0.990688232421875,0.00013315795513335615,-0.00013315795513335615,0.0006657897611148655
1783081029500344800,1.0103447265625,0.00013315795513335615,-0.00013315795513335615,0.0006657897611148655
1783081029540235300,1.0502353515625,0.00013315795513335615,-0.00013315795513335615,-0.0003994738799519837
1783081029560084200,1.070084228515625,0.00013315795513335615,-0.00013315795513335615,-0.0003994738799519837
1783081029579741200,1.0897412109375,-0.0009321057004854083,-0.00013315795513335615,-0.0003994738799519837
1783081029599590000,1.10958984375,0.00013315795513335615,-0.00013315795513335615,0.0006657897611148655
1783081029619631000,1.129631103515625,0.00013315795513335615,-0.00013315795513335615,0.0006657897611148655
1783081029639480300,1.149480224609375,0.00013315795513335615,-0.00013315795513335615,-0.0003994738799519837
1783081029659175400,1.169175537109375,0.0011984215816482902,0.0009321057004854083,0.0006657897611148655
1783081029679024000,1.189024169921875,0.00013315795513335615,-0.00013315795513335615,-0.0003994738799519837
1783081029698873000,1.208873046875,0.00013315795513335615,-0.0011984215816482902,-0.0003994738799519837
1783081029718876200,1.228876220703125,0.0011984215816482902,-0.00013315795513335615,-0.0003994738799519837
1783081029738532900,1.248532958984375,0.00013315795513335615,-0.0011984215816482902,0.0006657897611148655
1783081029758381600,1.268381591796875,-0.0009321057004854083,-0.00013315795513335615,0.0006657897611148655
1783081029778230500,1.28823046875,0.00013315795513335615,0.0009321057004854083,0.0006657897611148655
1783081029798079200,1.308079345703125,0.0011984215816482902,-0.00013315795513335615,-0.0003994738799519837
1783081029818121000,1.328120849609375,0.00013315795513335615,-0.0011984215816482902,0.0006657897611148655
1783081029837970200,1.34797021484375,0.00013315795513335615,-0.00013315795513335615,-0.0003994738799519837
1783081029857626600,1.367626708984375,-0.0009321057004854083,-0.00013315795513335615,0.0006657897611148655
1783081029877475600,1.3874755859375,-0.0009321057004854083,-0.00013315795513335615,-0.0003994738799519837
1783081029897324500,1.407324462890625,-0.0009321057004854083,-0.00013315795513335615,-0.0003994738799519837
1783081029917366000,1.427365966796875,-0.0009321057004854083,-0.00013315795513335615,-0.0003994738799519837
1783081029937022500,1.4470224609375,-0.0009321057004854083,-0.00013315795513335615,-0.0003994738799519837
1783081029956871400,1.466871337890625,0.00013315795513335615,-0.00013315795513335615,0.0006657897611148655
1783081029976720400,1.486720458984375,0.00013315795513335615,-0.00013315795513335615,0.0006657897611148655
1783081029996569300,1.5065693359375,0.00013315795513335615,-0.00013315795513335615,0.0006657897611148655
1783081030016610800,1.52661083984375,-0.0009321057004854083,-0.0011984215816482902,0.0006657897611148655
1783081030036267500,1.546267578125,-0.0009321057004854083,-0.00013315795513335615,-0.0003994738799519837
1783081030056116200,1.5661162109375,-0.0009321057004854083,-0.00013315795513335615,0.0006657897611148655
1783081030075965200,1.585965087890625,0.00013315795513335615,-0.0011984215816482902,-0.0003994738799519837
1783081030095814100,1.605814208984375,-0.0009321057004854083,-0.00013315795513335615,-0.0003994738799519837
1783081030115856000,1.62585595703125,-0.0009321057004854083,0.0009321057004854083,0.0006657897611148655
1783081030135512300,1.64551220703125,0.00013315795513335615,-0.00013315795513335615,0.0006657897611148655
1783081030155361300,1.665361328125,0.00013315795513335615,0.0009321057004854083,0.0006657897611148655
1783081030175210200,1.685210205078125,0.0011984215816482902,-0.00013315795513335615,-0.0003994738799519837
1783081030195059200,1.70505908203125,0.00013315795513335615,-0.00013315795513335615,-0.0003994738799519837
1783081030215100700,1.7251005859375,-0.0009321057004854083,-0.00013315795513335615,-0.0003994738799519837
1783081030234757400,1.74475732421875,0.00013315795513335615,-0.00013315795513335615,-0.0003994738799519837
1783081030254798800,1.764798828125,0.0011984215816482902,-0.00013315795513335615,0.0006657897611148655
1783081030274455600,1.78445556640625,0.00013315795513335615,-0.0011984215816482902,-0.0003994738799519837
1783081030294304500,1.804304443359375,-0.0009321057004854083,-0.00013315795513335615,-0.0003994738799519837
1783081030314346000,1.824345947265625,0.00013315795513335615,-0.00013315795513335615,0.0006657897611148655
1783081030334002400,1.84400244140625,0.00013315795513335615,-0.00013315795513335615,-0.0003994738799519837
1783081030353851400,1.863851318359375,-0.0009321057004854083,-0.00013315795513335615,-0.0003994738799519837
1783081030373700400,1.883700439453125,0.00013315795513335615,-0.00013315795513335615,0.0006657897611148655
1783081030393741800,1.903741943359375,0.00013315795513335615,-0.00013315795513335615,0.0006657897611148655
1783081030413591000,1.923591064453125,0.00013315795513335615,-0.00013315795513335615,-0.0003994738799519837
1783081030433247700,1.943247802734375,0.0011984215816482902,0.0009321057004854083,-0.0003994738799519837
1783081030453096400,1.963096435546875,0.00013315795513335615,-0.00013315795513335615,-0.001464737462811172
1783081030472945400,1.9829453125,0.00013315795513335615,-0.00013315795513335615,-0.0003994738799519837
1783081030492794400,2.00279443359375,0.00013315795513335615,-0.0011984215816482902,-0.0003994738799519837
1783081030512835800,2.0228359375,0.00013315795513335615,-0.00013315795513335615,-0.0003994738799519837
1783081030532685000,2.04268505859375,0.00013315795513335615,-0.00013315795513335615,0.0017310534603893757
1783081030552341800,2.062341796875,0.00013315795513335615,-0.0011984215816482902,0.0006657897611148655
1783081030572190500,2.0821904296875,0.00013315795513335615,-0.00013315795513335615,-0.0003994738799519837
1783081030592039400,2.102039306640625,0.00013315795513335615,-0.00013315795513335615,-0.0003994738799519837
1783081030612081000,2.122080810546875,0.00013315795513335615,-0.00013315795513335615,-0.0003994738799519837
1783081030631737600,2.141737548828125,0.00013315795513335615,0.0009321057004854083,-0.0003994738799519837
1783081030651624700,2.161624755859375,0.00013315795513335615,-0.00013315795513335615,0.0006657897611148655
1783081030671628000,2.1816279296875,-0.0009321057004854083,-0.0011984215816482902,0.0006657897611148655
1783081030691323100,2.2013232421875,-0.0009321057004854083,-0.00013315795513335615,0.0006657897611148655
1783081030711326000,2.221325927734375,0.00013315795513335615,-0.00013315795513335615,0.0006657897611148655
1783081030731021000,2.24102099609375,-0.0009321057004854083,-0.00013315795513335615,-0.0003994738799519837
1783081030751024000,2.261024169921875,0.00013315795513335615,-0.00013315795513335615,0.0006657897611148655
1783081030770873300,2.280873291015625,0.00013315795513335615,-0.00013315795513335615,-0.0003994738799519837
1783081030790722300,2.300722412109375,0.00013315795513335615,-0.00013315795513335615,0.0006657897611148655
1783081030810571500,2.320571533203125,0.00013315795513335615,-0.00013315795513335615,0.0006657897611148655
1783081030830420500,2.34042041015625,0.0011984215816482902,-0.00013315795513335615,-0.0003994738799519837
1783081030850269400,2.36026953125,0.00013315795513335615,-0.0011984215816482902,-0.0003994738799519837
1783081030870118700,2.38011865234375,0.00013315795513335615,-0.00013315795513335615,0.0006657897611148655
1783081030889967600,2.399967529296875,-0.0009321057004854083,-0.00013315795513335615,-0.0003994738799519837
1783081030909816600,2.419816650390625,-0.0009321057004854083,-0.00013315795513335615,-0.0003994738799519837
1783081030929665800,2.439665771484375,-0.0009321057004854083,-0.0011984215816482902,-0.0003994738799519837
1783081030949511000,2.459510986328125,-0.0009321057004854083,-0.0011984215816482902,-0.0003994738799519837
1783081030969360100,2.479360107421875,0.00013315795513335615,-0.00013315795513335615,0.0006657897611148655
1783081030989209300,2.499209228515625,0.00013315795513335615,-0.00013315795513335615,0.0006657897611148655
1783081031009058600,2.51905859375,0.00013315795513335615,-0.00013315795513335615,-0.0003994738799519837
1783081031028838400,2.53883837890625,0.00013315795513335615,0.0009321057004854083,-0.0003994738799519837
1783081031048582000,2.558581787109375,0.00013315795513335615,-0.00013315795513335615,-0.0003994738799519837
1783081031068427300,2.57842724609375,0.00013315795513335615,0.0009321057004854083,-0.0003994738799519837
1783081031088273200,2.598273193359375,0.00013315795513335615,0.0009321057004854083,-0.001464737462811172
1783081031108292600,2.618292724609375,0.00013315795513335615,0.0009321057004854083,-0.0003994738799519837
1783081031127970600,2.637970458984375,0.00013315795513335615,-0.00013315795513335615,-0.0003994738799519837
1783081031147817200,2.657817138671875,0.00013315795513335615,-0.00013315795513335615,-0.0003994738799519837
1783081031167664400,2.677664306640625,-0.0009321057004854083,-0.00013315795513335615,-0.0003994738799519837
1783081031187512000,2.697511962890625,0.00013315795513335615,-0.00013315795513335615,-0.0003994738799519837
1783081031207532800,2.71753271484375,0.0011984215816482902,0.0019973693415522575,0.0006657897611148655
1783081031227385000,2.737385009765625,0.00013315795513335615,-0.00013315795513335615,0.0006657897611148655
1783081031247063300,2.757063232421875,0.0011984215816482902,-0.00013315795513335615,-0.0003994738799519837
1783081031266910200,2.77691015625,0.00013315795513335615,0.0009321057004854083,-0.0003994738799519837
1783081031286757600,2.796757568359375,0.00013315795513335615,-0.00013315795513335615,0.0006657897611148655
1783081031306778400,2.8167783203125,0.00013315795513335615,-0.00013315795513335615,0.0006657897611148655
1783081031326457000,2.83645703125,0.00013315795513335615,0.0009321057004854083,-0.0003994738799519837
1783081031346304500,2.856304443359375,0.00013315795513335615,-0.00013315795513335615,-0.0003994738799519837
1783081031366325200,2.8763251953125,0.00013315795513335615,-0.00013315795513335615,0.0006657897611148655
1783081031386004000,2.89600390625,0.00013315795513335615,-0.00013315795513335615,-0.0003994738799519837
1783081031406024400,2.9160244140625,0.00013315795513335615,0.0009321057004854083,-0.0003994738799519837
1783081031425876500,2.93587646484375,0.00013315795513335615,-0.00013315795513335615,0.0006657897611148655
1783081031445727700,2.955727783203125,-0.0009321057004854083,0.0009321057004854083,0.0006657897611148655
1783081031465405200,2.9754052734375,-0.0009321057004854083,-0.00013315795513335615,-0.0003994738799519837
1783081031485251600,2.99525146484375,0.00013315795513335615,-0.00013315795513335615,-0.0003994738799519837
1783081031505271600,3.015271484375,0.00013315795513335615,-0.00013315795513335615,0.0006657897611148655
1783081031525123000,3.035123046875,0.00013315795513335615,0.0009321057004854083,0.0006657897611148655
1783081031544974000,3.05497412109375,0.00013315795513335615,0.0009321057004854083,0.0006657897611148655
1783081031564824600,3.074824462890625,0.00013315795513335615,0.0009321057004854083,-0.0003994738799519837
1783081031584674800,3.0946748046875,0.00013315795513335615,0.0009321057004854083,-0.0003994738799519837
1783081031604524800,3.11452490234375,0.00013315795513335615,-0.0011984215816482902,-0.0003994738799519837
1783081031624374800,3.134374755859375,0.00013315795513335615,-0.0011984215816482902,0.0006657897611148655
1783081031644224300,3.154224365234375,0.00013315795513335615,-0.00013315795513335615,0.0006657897611148655
1783081031664073700,3.17407373046875,0.0011984215816482902,-0.00013315795513335615,0.0006657897611148655
1783081031683923200,3.193923095703125,-0.0009321057004854083,-0.00013315795513335615,-0.0003994738799519837
1783081031703772700,3.213772705078125,-0.0009321057004854083,-0.00013315795513335615,-0.0003994738799519837
1783081031723622000,3.233621826171875,0.00013315795513335615,0.0009321057004854083,-0.0003994738799519837
1783081031743332400,3.253332275390625,0.00013315795513335615,-0.00013315795513335615,0.0006657897611148655
1783081031763316700,3.273316650390625,0.00013315795513335615,-0.00013315795513335615,-0.0003994738799519837
1783081031783166500,3.29316650390625,0.00013315795513335615,-0.00013315795513335615,-0.0003994738799519837
1783081031803016200,3.31301611328125,0.0011984215816482902,-0.0011984215816482902,0.0006657897611148655
1783081031822865700,3.33286572265625,-0.0009321057004854083,-0.00013315795513335615,-0.0003994738799519837
1783081031842715100,3.352715087890625,0.00013315795513335615,-0.0011984215816482902,-0.001464737462811172
1783081031862564400,3.372564453125,0.00013315795513335615,0.0009321057004854083,0.0006657897611148655
1783081031882413800,3.392413818359375,-0.0009321057004854083,-0.00013315795513335615,-0.0003994738799519837
1783081031902263000,3.412262939453125,0.00013315795513335615,-0.00013315795513335615,-0.0003994738799519837
1783081031922112300,3.4321123046875,0.00013315795513335615,-0.0011984215816482902,0.0006657897611148655
1783081031941961200,3.451961181640625,0.00013315795513335615,-0.00013315795513335615,-0.0003994738799519837
1783081031961810400,3.471810546875,0.00013315795513335615,-0.00013315795513335615,-0.0003994738799519837
1783081031981659400,3.491659423828125,0.00013315795513335615,-0.00013315795513335615,0.0006657897611148655
1783081032001474000,3.51147412109375,0.00013315795513335615,-0.00013315795513335615,0.0006657897611148655
1783081032021356800,3.531356689453125,0.0011984215816482902,-0.00013315795513335615,-0.0003994738799519837
1783081032041206000,3.5512060546875,0.00013315795513335615,-0.00013315795513335615,-0.0003994738799519837
1783081032061055200,3.57105517578125,0.00013315795513335615,-0.00013315795513335615,-0.0003994738799519837
1783081032080904200,3.590904296875,0.00013315795513335615,-0.00013315795513335615,-0.0003994738799519837
1783081032100753400,3.61075341796875,0.00013315795513335615,-0.00013315795513335615,-0.0003994738799519837
1783081032120602400,3.630602294921875,-0.0009321057004854083,-0.00013315795513335615,0.0006657897611148655
1783081032140451600,3.65045166015625,0.00013315795513335615,-0.00013315795513335615,0.0006657897611148655
1783081032160300500,3.670300537109375,0.00013315795513335615,-0.00013315795513335615,-0.0003994738799519837
1783081032180149500,3.6901494140625,-0.0009321057004854083,-0.00013315795513335615,-0.0003994738799519837
1783081032199998700,3.709998779296875,0.00013315795513335615,-0.00013315795513335615,0.0006657897611148655
1783081032219847700,3.72984765625,0.00013315795513335615,-0.00013315795513335615,-0.0003994738799519837
1783081032239696600,3.749696533203125,0.00013315795513335615,-0.00013315795513335615,-0.0003994738799519837
1783081032259545600,3.769545654296875,-0.0009321057004854083,-0.0011984215816482902,-0.0003994738799519837
1783081032279394800,3.789394775390625,0.00013315795513335615,-0.00013315795513335615,-0.0003994738799519837
1783081032299070700,3.80907080078125,0.00013315795513335615,-0.00013315795513335615,-0.0003994738799519837
1783081032318915300,3.828915283203125,0.00013315795513335615,-0.00013315795513335615,-0.0003994738799519837
1783081032338761200,3.84876123046875,0.00013315795513335615,-0.0011984215816482902,-0.0003994738799519837
1783081032358780400,3.868780517578125,0.00013315795513335615,-0.0022636852227151394,-0.0003994738799519837
1783081032378631400,3.88863134765625,0.00013315795513335615,-0.0011984215816482902,-0.0003994738799519837
1783081032398308900,3.908308837890625,0.00013315795513335615,-0.00013315795513335615,0.0006657897611148655
1783081032418328000,3.928328125,0.00013315795513335615,0.0009321057004854083,0.0006657897611148655
1783081032438005800,3.948005859375,0.00013315795513335615,-0.00013315795513335615,-0.0003994738799519837
1783081032458025000,3.96802490234375,0.00013315795513335615,0.0009321057004854083,-0.0003994738799519837
1783081032477876200,3.987876220703125,0.00013315795513335615,-0.00013315795513335615,-0.0003994738799519837
1783081032497553700,4.0075537109375,0.00013315795513335615,-0.00013315795513335615,-0.0003994738799519837
1783081032517399800,4.02739990234375,-0.0009321057004854083,-0.00013315795513335615,0.0006657897611148655
1783081032537212200,4.047212158203125,-0.0009321057004854083,-0.0011984215816482902,0.0006657897611148655
1783081032557266000,4.067265869140625,0.00013315795513335615,-0.00013315795513335615,-0.0003994738799519837
1783081032577118000,4.087117919921875,0.00013315795513335615,0.0009321057004854083,0.0006657897611148655
1783081032596796000,4.1067958984375,0.00013315795513335615,-0.00013315795513335615,0.0006657897611148655
1783081032616642800,4.126642822265625,0.00013315795513335615,0.0009321057004854083,-0.0003994738799519837
1783081032636490000,4.146489990234375,0.00013315795513335615,0.0009321057004854083,-0.0003994738799519837
1783081032656510500,4.166510498046875,0.00013315795513335615,-0.00013315795513335615,-0.0003994738799519837
1783081032676362500,4.186362548828125,0.00013315795513335615,-0.00013315795513335615,-0.0003994738799519837
1783081032696214000,4.206214111328125,0.00013315795513335615,-0.00013315795513335615,-0.0003994738799519837
1783081032715891700,4.2258916015625,-0.0019973693415522575,-0.00013315795513335615,-0.0003994738799519837
1783081032735772700,4.245772705078125,0.00013315795513335615,-0.00013315795513335615,0.0006657897611148655
1783081032755758800,4.2657587890625,0.00013315795513335615,-0.00013315795513335615,-0.0003994738799519837
1783081032775610000,4.285610107421875,0.00013315795513335615,0.0009321057004854083,-0.0003994738799519837
1783081032795322400,4.305322265625,0.00013315795513335615,-0.00013315795513335615,0.0006657897611148655
1783081032815169500,4.32516943359375,-0.0009321057004854083,-0.0011984215816482902,-0.0003994738799519837
1783081032835155700,4.34515576171875,0.00013315795513335615,0.0009321057004854083,-0.0003994738799519837
1783081032855007000,4.365007080078125,0.00013315795513335615,-0.00013315795513335615,-0.0003994738799519837
1783081032874857700,4.384857666015625,0.00013315795513335615,-0.0011984215816482902,-0.0003994738799519837
1783081032894535000,4.404534912109375,0.00013315795513335615,-0.0011984215816482902,0.0006657897611148655
1783081032914380800,4.424380859375,0.00013315795513335615,-0.0011984215816482902,0.0006657897611148655
1783081032934400500,4.444400390625,0.0011984215816482902,-0.00013315795513335615,-0.0003994738799519837
1783081032954251500,4.46425146484375,0.00013315795513335615,-0.00013315795513335615,0.0006657897611148655
1783081032974102300,4.484102294921875,0.00013315795513335615,0.0009321057004854083,-0.0003994738799519837
1783081032993779700,4.50377978515625,0.00013315795513335615,0.0009321057004854083,-0.0003994738799519837
1783081033013625600,4.52362548828125,-0.0009321057004854083,-0.00013315795513335615,-0.0003994738799519837
1783081033033645300,4.543645263671875,0.00013315795513335615,-0.00013315795513335615,0.0006657897611148655
1783081033053323300,4.5633232421875,0.00013315795513335615,-0.00013315795513335615,-0.0003994738799519837
1783081033073343000,4.583343017578125,0.00013315795513335615,-0.00013315795513335615,0.0006657897611148655
1783081033093021000,4.60302099609375,0.00013315795513335615,0.0009321057004854083,0.0006657897611148655
1783081033113040600,4.62304052734375,-0.0009321057004854083,0.0009321057004854083,-0.0003994738799519837
1783081033132892200,4.64289208984375,-0.0009321057004854083,-0.00013315795513335615,-0.0003994738799519837
1783081033152569600,4.662569580078125,0.0011984215816482902,-0.00013315795513335615,0.0006657897611148655
1783081033172416000,4.682416015625,-0.0009321057004854083,-0.00013315795513335615,0.0006657897611148655
1783081033192263200,4.70226318359375,-0.0009321057004854083,-0.00013315795513335615,0.0006657897611148655
1783081033212283400,4.722283447265625,-0.0009321057004854083,-0.00013315795513335615,-0.0003994738799519837
1783081033232135200,4.74213525390625,-0.0009321057004854083,-0.00013315795513335615,-0.0003994738799519837
1783081033251986400,4.761986328125,0.00013315795513335615,-0.00013315795513335615,-0.0003994738799519837
1783081033271664000,4.7816640625,0.00013315795513335615,-0.00013315795513335615,-0.0003994738799519837
1783081033291510500,4.801510498046875,0.00013315795513335615,-0.00013315795513335615,-0.0003994738799519837
1783081033311530200,4.8215302734375,0.00013315795513335615,-0.00013315795513335615,-0.0003994738799519837
1783081033331381800,4.8413818359375,0.00013315795513335615,-0.00013315795513335615,-0.0003994738799519837
1783081033351059500,4.8610595703125,0.00013315795513335615,-0.00013315795513335615,-0.0003994738799519837
1783081033370905900,4.88090576171875,0.00013315795513335615,0.0009321057004854083,-0.0003994738799519837
1783081033390925800,4.90092578125,0.00013315795513335615,-0.00013315795513335615,-0.0003994738799519837
1783081033410777300,4.92077734375,0.00013315795513335615,-0.00013315795513335615,0.0006657897611148655
1783081033430628400,4.94062841796875,0.00013315795513335615,-0.00013315795513335615,-0.0003994738799519837
1783081033450305800,4.960305908203125,0.0011984215816482902,0.0009321057004854083,0.0006657897611148655
1783081033470152000,4.98015185546875,-0.0009321057004854083,0.0009321057004854083,-0.0003994738799519837
1783081033489998800,4.999998779296875,0.00013315795513335615,-0.00013315795513335615,-0.0003994738799519837
1783081033510018800,5.020018798828125,0.0011984215816482902,-0.0011984215816482902,-0.0003994738799519837
1783081033529870600,5.03987060546875,0.00013315795513335615,-0.00013315795513335615,-0.001464737462811172
1783081033549548500,5.059548583984375,-0.0009321057004854083,-0.00013315795513335615,-0.0003994738799519837
1783081033569395200,5.079395263671875,0.00013315795513335615,-0.00013315795513335615,-0.0003994738799519837
1783081033589242400,5.099242431640625,0.00013315795513335615,-0.00013315795513335615,-0.0003994738799519837
1783081033609262800,5.119262939453125,-0.0009321057004854083,-0.00013315795513335615,-0.0003994738799519837
1783081033629115000,5.139114990234375,-0.0009321057004854083,-0.00013315795513335615,-0.0003994738799519837
1783081033648792800,5.158792724609375,0.00013315795513335615,-0.00013315795513335615,0.0006657897611148655
1783081033668639500,5.178639404296875,0.00013315795513335615,-0.00013315795513335615,-0.0003994738799519837
1783081033688487000,5.19848681640625,0.00013315795513335615,-0.00013315795513335615,0.0006657897611148655
1783081033708507400,5.21850732421875,0.00013315795513335615,-0.00013315795513335615,0.0006657897611148655
1783081033728186000,5.23818603515625,0.00013315795513335615,0.0009321057004854083,-0.0003994738799519837
1783081033748033500,5.258033447265625,-0.0019973693415522575,-0.00013315795513335615,-0.0003994738799519837
1783081033767881000,5.277880859375,0.0011984215816482902,-0.00013315795513335615,-0.0003994738799519837
1783081033787763500,5.297763427734375,0.00013315795513335615,-0.00013315795513335615,-0.0003994738799519837
1783081033807751200,5.317751220703125,0.0011984215816482902,-0.00013315795513335615,0.0006657897611148655
1783081033827464700,5.337464599609375,0.0011984215816482902,-0.00013315795513335615,-0.0003994738799519837
1783081033847313200,5.357313232421875,-0.0009321057004854083,-0.00013315795513335615,0.0006657897611148655
1783081033867126800,5.377126708984375,0.00013315795513335615,-0.00013315795513335615,0.0006657897611148655
1783081033886974700,5.396974609375,0.00013315795513335615,-0.00013315795513335615,-0.0003994738799519837
1783081033906995700,5.41699560546875,-0.0009321057004854083,-0.00013315795513335615,0.0006657897611148655
1783081033926674700,5.4366748046875,0.00013315795513335615,0.0009321057004854083,-0.0003994738799519837
1783081033946522400,5.4565224609375,0.00013315795513335615,-0.00013315795513335615,-0.0003994738799519837
1783081033966370300,5.476370361328125,0.0011984215816482902,-0.00013315795513335615,-0.0003994738799519837
1783081033986218200,5.49621826171875,0.00013315795513335615,-0.00013315795513335615,-0.0003994738799519837
1783081034006239500,5.516239501953125,-0.0009321057004854083,-0.00013315795513335615,-0.0003994738799519837
1783081034026092300,5.53609228515625,-0.0009321057004854083,0.0009321057004854083,-0.001464737462811172
1783081034045770800,5.555770751953125,0.00013315795513335615,-0.00013315795513335615,-0.0003994738799519837
1783081034065791000,5.575791015625,0.00013315795513335615,0.0009321057004854083,0.0006657897611148655
1783081034085642500,5.595642578125,0.00013315795513335615,-0.00013315795513335615,0.0006657897611148655
1783081034105493800,5.61549365234375,0.00013315795513335615,-0.00013315795513335615,-0.0003994738799519837
1783081034125344500,5.635344482421875,-0.0009321057004854083,0.0009321057004854083,0.0006657897611148655
1783081034145194800,5.65519482421875,0.00013315795513335615,-0.00013315795513335615,-0.0003994738799519837
1783081034165045000,5.675044921875,-0.0009321057004854083,-0.0011984215816482902,-0.001464737462811172
1783081034184895000,5.69489501953125,0.00013315795513335615,-0.00013315795513335615,0.0006657897611148655
1783081034204744400,5.714744384765625,0.00013315795513335615,-0.00013315795513335615,-0.0003994738799519837
1783081034224594200,5.73459423828125,-0.0009321057004854083,-0.0011984215816482902,-0.0003994738799519837
1783081034244443600,5.754443603515625,0.00013315795513335615,0.0009321057004854083,-0.0003994738799519837
1783081034264293000,5.774293212890625,0.0011984215816482902,-0.00013315795513335615,-0.0003994738799519837
1783081034284142300,5.794142333984375,0.00013315795513335615,-0.00013315795513335615,-0.0003994738799519837
1783081034303991600,5.813991455078125,0.00013315795513335615,-0.00013315795513335615,-0.0003994738799519837
1783081034323840800,5.8338408203125,0.00013315795513335615,-0.00013315795513335615,0.0006657897611148655
1783081034343690000,5.85368994140625,0.00013315795513335615,-0.0011984215816482902,-0.0003994738799519837
1783081034363539000,5.8735390625,0.00013315795513335615,-0.00013315795513335615,-0.0003994738799519837
1783081034383388200,5.89338818359375,0.00013315795513335615,-0.00013315795513335615,-0.0003994738799519837
1783081034403237000,5.913237060546875,0.00013315795513335615,-0.00013315795513335615,0.0006657897611148655
1783081034423086000,5.933086181640625,0.00013315795513335615,0.0009321057004854083,0.0006657897611148655
1783081034442935300,5.952935302734375,0.00013315795513335615,-0.00013315795513335615,0.0006657897611148655
1783081034462784300,5.9727841796875,-0.0009321057004854083,-0.00013315795513335615,0.0006657897611148655
1783081034482633200,5.99263330078125,0.00013315795513335615,-0.00013315795513335615,-0.0003994738799519837
1783081034502482200,6.012482177734375,-0.0009321057004854083,-0.00013315795513335615,-0.0003994738799519837
1783081034522331400,6.032331298828125,-0.0009321057004854083,-0.00013315795513335615,-0.0003994738799519837
1783081034542180400,6.052180419921875,0.00013315795513335615,-0.00013315795513335615,-0.001464737462811172
1783081034562029300,6.072029296875,0.00013315795513335615,-0.00013315795513335615,0.0006657897611148655
1783081034581878300,6.091878173828125,-0.0009321057004854083,-0.00013315795513335615,0.0006657897611148655
1783081034601727200,6.111727294921875,0.00013315795513335615,-0.00013315795513335615,0.0006657897611148655
1783081034621576200,6.131576171875,0.00013315795513335615,0.0009321057004854083,0.0006657897611148655
1783081034641425200,6.151425048828125,0.00013315795513335615,-0.00013315795513335615,-0.0003994738799519837
1783081034661274400,6.1712744140625,-0.0009321057004854083,-0.00013315795513335615,-0.0003994738799519837
1783081034681123300,6.191123291015625,0.00013315795513335615,-0.00013315795513335615,0.0006657897611148655
1783081034700972300,6.21097216796875,0.00013315795513335615,-0.00013315795513335615,-0.0003994738799519837
1783081034720821200,6.2308212890625,-0.0009321057004854083,-0.00013315795513335615,0.0006657897611148655
1783081034740670200,6.250670166015625,-0.0009321057004854083,-0.00013315795513335615,-0.0003994738799519837
1783081034760519200,6.270519287109375,0.0011984215816482902,-0.00013315795513335615,0.0006657897611148655
1783081034780368400,6.290368408203125,0.00013315795513335615,-0.00013315795513335615,0.0006657897611148655
1783081034800217300,6.31021728515625,0.00013315795513335615,-0.0011984215816482902,0.0006657897611148655
1783081034820066300,6.33006640625,0.0011984215816482902,0.0009321057004854083,0.0006657897611148655
1783081034839915300,6.349915283203125,0.00013315795513335615,-0.00013315795513335615,-0.0003994738799519837
1783081034859764200,6.36976416015625,0.00013315795513335615,-0.0011984215816482902,0.0006657897611148655
1783081034879613200,6.38961328125,0.00013315795513335615,-0.00013315795513335615,0.0006657897611148655
1783081034899462100,6.409462158203125,0.00013315795513335615,-0.00013315795513335615,0.0006657897611148655
1783081034919207200,6.429207275390625,-0.0009321057004854083,-0.00013315795513335615,-0.0003994738799519837
1783081034938984700,6.448984619140625,0.00013315795513335615,0.0009321057004854083,-0.0003994738799519837
1783081034959003000,6.4690029296875,0.00013315795513335615,0.0009321057004854083,0.0006657897611148655
1783081034978853000,6.48885302734375,0.00013315795513335615,0.0009321057004854083,-0.0003994738799519837
1783081034998530000,6.508530029296875,0.00013315795513335615,-0.00013315795513335615,-0.0003994738799519837
1783081035018375400,6.52837548828125,0.00013315795513335615,-0.00013315795513335615,0.0006657897611148655
1783081035038222000,6.54822216796875,0.0011984215816482902,-0.00013315795513335615,-0.0003994738799519837
1783081035058241800,6.56824169921875,0.00013315795513335615,0.0009321057004854083,-0.0003994738799519837
1783081035078093300,6.58809326171875,0.00013315795513335615,0.0009321057004854083,-0.0003994738799519837
1783081035097771000,6.60777099609375,0.00013315795513335615,-0.00013315795513335615,-0.0003994738799519837
1783081035117617400,6.627617431640625,0.00013315795513335615,-0.00013315795513335615,-0.0003994738799519837
1783081035137464300,6.64746435546875,0.00013315795513335615,-0.00013315795513335615,-0.0003994738799519837
1783081035157484800,6.66748486328125,0.00013315795513335615,0.0009321057004854083,-0.0003994738799519837
1783081035177336600,6.687336669921875,-0.0009321057004854083,-0.00013315795513335615,-0.0003994738799519837
1783081035197014500,6.7070146484375,0.00013315795513335615,-0.00013315795513335615,-0.0003994738799519837
1783081035217034200,6.7270341796875,0.00013315795513335615,0.0009321057004854083,0.0006657897611148655
1783081035236712200,6.746712158203125,0.00013315795513335615,-0.00013315795513335615,0.0006657897611148655
1783081035256732200,6.766732177734375,0.00013315795513335615,0.0009321057004854083,-0.0003994738799519837
1783081035276583400,6.78658349609375,0.00013315795513335615,0.0009321057004854083,-0.0003994738799519837
1783081035296261000,6.80626123046875,0.00013315795513335615,-0.00013315795513335615,0.0006657897611148655
1783081035316107500,6.826107421875,0.00013315795513335615,0.0009321057004854083,0.0006657897611148655
1783081035335954400,6.845954345703125,0.00013315795513335615,-0.00013315795513335615,0.0006657897611148655
1783081035355975000,6.865974853515625,0.00013315795513335615,-0.00013315795513335615,0.0006657897611148655
1783081035375826700,6.88582666015625,0.00013315795513335615,0.0009321057004854083,0.0006657897611148655
1783081035395504600,6.905504638671875,0.00013315795513335615,-0.00013315795513335615,-0.0003994738799519837
1783081035415351300,6.925351318359375,0.0011984215816482902,-0.00013315795513335615,0.0006657897611148655
1783081035435198500,6.945198486328125,0.00013315795513335615,-0.00013315795513335615,-0.0003994738799519837
1783081035455219200,6.96521923828125,0.00013315795513335615,-0.00013315795513335615,-0.0003994738799519837
1783081035475071000,6.985071044921875,0.00013315795513335615,-0.00013315795513335615,-0.0003994738799519837
1783081035494922500,7.004922607421875,0.00013315795513335615,-0.00013315795513335615,-0.0003994738799519837
1783081035514600200,7.02460009765625,0.00013315795513335615,0.0009321057004854083,0.0006657897611148655
1783081035534619400,7.044619384765625,-0.0009321057004854083,0.0009321057004854083,0.0006657897611148655
1783081035554470700,7.064470703125,-0.0009321057004854083,-0.00013315795513335615,0.0006657897611148655
1783081035574321200,7.084321044921875,0.00013315795513335615,-0.00013315795513335615,-0.0003994738799519837
1783081035593998300,7.103998291015625,0.0011984215816482902,-0.00013315795513335615,-0.0003994738799519837
1783081035613844200,7.12384423828125,-0.0009321057004854083,-0.00013315795513335615,-0.0003994738799519837
1783081035633863700,7.14386376953125,-0.0009321057004854083,-0.00013315795513335615,-0.0003994738799519837
1783081035653541600,7.163541748046875,0.00013315795513335615,-0.0011984215816482902,0.0006657897611148655
1783081035673561300,7.183561279296875,0.00013315795513335615,-0.00013315795513335615,-0.0003994738799519837
1783081035693239300,7.2032392578125,-0.0009321057004854083,-0.00013315795513335615,-0.0003994738799519837
1783081035713086000,7.2230859375,-0.0009321057004854083,-0.00013315795513335615,0.0006657897611148655
1783081035733106200,7.243106201171875,0.00013315795513335615,-0.00013315795513335615,0.0006657897611148655
1783081035752784600,7.26278466796875,0.00013315795513335615,0.0009321057004854083,0.0006657897611148655
1783081035772804600,7.2828046875,0.0011984215816482902,0.0009321057004854083,-0.0003994738799519837
1783081035792483000,7.302483154296875,0.00013315795513335615,0.0009321057004854083,-0.0003994738799519837
1783081035812503000,7.3225029296875,0.00013315795513335615,-0.00013315795513335615,-0.0003994738799519837
1783081035832354600,7.3423544921875,0.00013315795513335615,-0.00013315795513335615,-0.0003994738799519837
1783081035852032300,7.3620322265625,0.00013315795513335615,-0.00013315795513335615,-0.0003994738799519837
1783081035871913500,7.38191357421875,0.00013315795513335615,0.0009321057004854083,-0.0003994738799519837
1783081035891761200,7.40176123046875,0.00013315795513335615,-0.0011984215816482902,-0.0003994738799519837
1783081035911747800,7.421747802734375,0.00013315795513335615,-0.0011984215816482902,-0.0003994738799519837
1783081035931599400,7.441599365234375,0.00013315795513335615,-0.00013315795513335615,-0.0003994738799519837
1783081035951312000,7.461311767578125,0.00013315795513335615,-0.00013315795513335615,0.0006657897611148655
1783081035971124700,7.481124755859375,-0.0009321057004854083,0.0009321057004854083,0.0006657897611148655
1783081035990971400,7.500971435546875,0.00013315795513335615,-0.00013315795513335615,-0.0003994738799519837
1783081036010991600,7.52099169921875,0.00013315795513335615,-0.00013315795513335615,0.0006657897611148655
1783081036030843400,7.540843505859375,-0.0009321057004854083,-0.00013315795513335615,-0.0003994738799519837
1783081036050694700,7.560694580078125,0.00013315795513335615,-0.00013315795513335615,-0.001464737462811172
1783081036070372400,7.580372314453125,0.00013315795513335615,0.0009321057004854083,0.0006657897611148655
1783081036090218500,7.600218505859375,0.00013315795513335615,0.0009321057004854083,-0.0003994738799519837
1783081036110238500,7.620238525390625,-0.0009321057004854083,-0.00013315795513335615,0.0006657897611148655
1783081036130090000,7.640090087890625,0.00013315795513335615,-0.00013315795513335615,0.0017310534603893757
1783081036149767400,7.659767333984375,0.00013315795513335615,-0.00013315795513335615,-0.0003994738799519837
1783081036169614000,7.679614013671875,0.00013315795513335615,-0.00013315795513335615,-0.0003994738799519837
1783081036189633800,7.6996337890625,0.00013315795513335615,-0.00013315795513335615,-0.0003994738799519837
1783081036209485600,7.719485595703125,0.00013315795513335615,0.0009321057004854083,-0.0003994738799519837
1783081036229336300,7.73933642578125,0.00013315795513335615,-0.0011984215816482902,-0.0003994738799519837
1783081036249013800,7.759013671875,0.00013315795513335615,-0.00013315795513335615,0.0006657897611148655
1783081036268860000,7.77885986328125,0.00013315795513335615,-0.00013315795513335615,-0.0003994738799519837
1783081036288706800,7.798706787109375,0.00013315795513335615,0.0009321057004854083,-0.0003994738799519837
1783081036308727000,7.81872705078125,0.0011984215816482902,-0.00013315795513335615,-0.0003994738799519837
1783081036328405200,7.8384052734375,0.00013315795513335615,0.0009321057004854083,-0.0003994738799519837
1783081036348425200,7.85842529296875,-0.0009321057004854083,-0.00013315795513335615,-0.0003994738799519837
1783081036368277000,7.878277099609375,0.00013315795513335615,-0.0011984215816482902,-0.0003994738799519837
1783081036388128000,7.8981279296875,0.00013315795513335615,-0.00013315795513335615,0.0006657897611148655
1783081036407978800,7.917978759765625,-0.0009321057004854083,0.0009321057004854083,-0.0003994738799519837
1783081036427656000,7.937656005859375,-0.0009321057004854083,-0.00013315795513335615,-0.0003994738799519837
1783081036447501800,7.957501708984375,0.00013315795513335615,-0.0011984215816482902,0.0006657897611148655
1783081036467348200,7.97734814453125,0.00013315795513335615,-0.00013315795513335615,0.0006657897611148655
1783081036487195400,7.9971953125,0.00013315795513335615,-0.00013315795513335615,0.0006657897611148655
1783081036507216000,8.0172158203125,0.00013315795513335615,0.0009321057004854083,-0.0003994738799519837
1783081036526894300,8.036894287109375,0.00013315795513335615,-0.00013315795513335615,-0.0003994738799519837
1783081036546914600,8.05691455078125,0.00013315795513335615,-0.0011984215816482902,-0.0003994738799519837
1783081036566593000,8.076593017578125,0.0011984215816482902,0.0009321057004854083,0.0006657897611148655
1783081036586440000,8.09643994140625,0.00013315795513335615,0.0009321057004854083,0.0006657897611148655
1783081036606460400,8.11646044921875,0.00013315795513335615,-0.00013315795513335615,0.0006657897611148655
1783081036626139100,8.13613916015625,0.00013315795513335615,0.0009321057004854083,0.0006657897611148655
1783081036645986300,8.155986328125,0.00013315795513335615,-0.00013315795513335615,0.0006657897611148655
1783081036665834000,8.175833984375,0.00013315795513335615,-0.00013315795513335615,0.0006657897611148655
1783081036685855000,8.19585498046875,0.00013315795513335615,-0.0011984215816482902,0.0006657897611148655
1783081036705707300,8.215707275390624,0.00013315795513335615,-0.00013315795513335615,0.0006657897611148655
1783081036725558800,8.235558837890625,0.00013315795513335615,-0.00013315795513335615,-0.001464737462811172
1783081036745409800,8.255409912109375,0.00013315795513335615,-0.00013315795513335615,-0.0003994738799519837
1783081036765260500,8.275260498046874,-0.0009321057004854083,-0.00013315795513335615,-0.0003994738799519837
1783081036785110800,8.29511083984375,0.00013315795513335615,-0.00013315795513335615,0.0006657897611148655
1783081036804960800,8.314960693359374,0.00013315795513335615,-0.00013315795513335615,-0.0003994738799519837
1783081036824810800,8.334810791015625,0.00013315795513335615,-0.00013315795513335615,0.0006657897611148655
1783081036864563000,8.37456298828125,0.00013315795513335615,-0.00013315795513335615,-0.0003994738799519837
1783081036884358100,8.394358154296874,0.00013315795513335615,-0.00013315795513335615,0.0006657897611148655
1783081036904208000,8.414207763671875,0.0011984215816482902,-0.00013315795513335615,0.0006657897611148655
1783081036924057000,8.43405712890625,0.00013315795513335615,-0.00013315795513335615,0.0006657897611148655
1783081036943906600,8.453906494140625,0.00013315795513335615,-0.0011984215816482902,0.0006657897611148655
1783081036963755800,8.473755859375,-0.0009321057004854083,-0.00013315795513335615,0.0006657897611148655
1783081036983605000,8.49360498046875,-0.0009321057004854083,0.032890014350414276,0.02090579830110073
1783081037003454200,8.5134541015625,0.00013315795513335615,0.003062632866203785,0.003861580742523074
1783081037023303400,8.533303466796875,0.0011984215816482902,-0.0043942127376794815,-0.004660528618842363
1783081037043152600,8.553152587890626,0.0011984215816482902,-0.013981585390865803,-0.00892158318310976
