time,seconds_elapsed,z,y,x
1783080855775116000,0.104115966796875,11.230712890625,9.350552558898926,-0.9260223507881165
1783080855794963000,0.123962890625,8.941978454589844,12.912867546081543,-2.609373092651367
1783080855815032600,0.144032470703125,13.272987365722656,12.80758285522461,2.9551360607147217
1783080855834818300,0.163818359375,20.381465911865234,11.823534965515137,4.856233596801758
1783080855854668000,0.18366796875,24.042484283447266,14.148759841918945,1.578664779663086
1783080855874517500,0.203517578125,21.96910285949707,16.41356658935547,0.39541393518447876
1783080855894367000,0.223366943359375,18.741783142089844,15.678372383117676,1.5541383028030396
1783080855914216700,0.243216796875,15.892529487609863,13.186247825622559,1.944766640663147
1783080855934066200,0.263066162109375,10.356734275817871,9.264410972595215,3.5581271648406982
1783080855953915600,0.28291552734375,5.403591632843018,5.598606586456299,4.226323127746582
1783080855973765000,0.30276513671875,3.528815269470215,3.032304525375366,3.3379876613616943
1783080855993599200,0.32259912109375,4.59421968460083,1.303490161895752,1.168893814086914
1783080856013298000,0.3422978515625,5.817550182342529,0.9302098155021667,-1.301695466041565
1783080856033149700,0.362149658203125,3.6340994834899902,0.8584251403808594,-2.3958137035369873
1783080856053016600,0.3820166015625,0.11246266216039658,0.7962117195129395,-3.1645078659057617
1783080856073003000,0.4020029296875,-1.1234302520751953,0.2883351147174835,-3.166900873184204
1783080856092696600,0.421696533203125,1.2352946996688843,-0.9326026439666748,-2.503490686416626
1783080856112513800,0.441513671875,3.1579277515411377,-1.9262222051620483,-2.0129621028900146
1783080856132402400,0.46140234375,3.3445677757263184,-2.091326951980591,-1.4859428405761719
1783080856152268300,0.481268310546875,2.2432711124420166,-1.8592232465744019,-0.5455635786056519
1783080856172254200,0.501254150390625,1.0414760112762451,-1.090528964996338,-0.2147558331489563
1783080856191950800,0.520950927734375,0.794417142868042,-0.5060819983482361,-0.6125625967979431
1783080856211797200,0.54079736328125,1.6468602418899536,0.20937198400497437,-1.2538390159606934
1783080856231609600,0.560609619140625,2.05603289604187,0.9158528447151184,-1.9555343389511108
1783080856251479800,0.580479736328125,0.8590233325958252,3.1040892601013184,-3.823132276535034
1783080856271499500,0.60049951171875,1.3980066776275635,6.1399827003479,-3.8662030696868896
1783080856291177700,0.620177734375,7.241877555847168,8.816354751586914,0.18723836541175842
1783080856311197700,0.64019775390625,15.018550872802734,12.819547653198242,2.644068956375122
1783080856330856400,0.6598564453125,17.72423553466797,18.946369171142578,1.7485551834106445
1783080856350726700,0.6797265625,25.976482391357422,20.60100746154785,4.264608383178711
1783080856370765800,0.699765869140625,43.38008117675781,14.804393768310547,6.6969122886657715
1783080856390598000,0.719597900390625,48.329036712646484,13.00678539276123,3.177668571472168
1783080856410294800,0.739294677734375,44.754756927490234,10.51645565032959,2.2654049396514893
1783080856430160600,0.75916064453125,31.543384552001953,9.783653259277344,3.9702908992767334
1783080856450162000,0.779161865234375,8.441878318786621,9.671191215515137,5.227120876312256
1783080856469990400,0.798990478515625,-3.9074792861938477,6.3840508460998535,5.859424591064453
1783080856489650000,0.81864990234375,-3.8835511207580566,0.4295116662979126,3.668795347213745
1783080856509501200,0.838501220703125,3.538386583328247,-3.063411235809326,-2.09431791305542
1783080856529371600,0.85837158203125,5.31984281539917,-2.8624141216278076,-5.223531723022461
1783080856549410800,0.878410888671875,-1.3962119817733765,-0.5617151260375977,-6.006583213806152
1783080856569258200,0.89825830078125,-8.595617294311523,0.9278169870376587,-4.965106964111328
1783080856589106200,0.918106201171875,-10.41057300567627,0.3122633695602417,-2.843869686126709
1783080856608935200,0.93793505859375,-6.205785751342773,-0.7603194117546082,-1.9435701370239258
1783080856628614700,0.95761474609375,-0.8093722462654114,-1.1623135805130005,-2.5226333141326904
1783080856648635400,0.977635498046875,2.128415822982788,-0.381655216217041,-3.1645078659057617
1783080856688146200,1.017146240234375,0.12442677468061447,1.6031911373138428,-1.6683956384658813
1783080856728056000,1.05705615234375,-0.9218349456787109,1.1024930477142334,0.18484555184841156
1783080856747884500,1.076884521484375,1.067797064781189,0.8464609980583191,1.4919248819351196
1783080856767543600,1.09654345703125,3.9451663494110107,1.5092729330062866,3.326023578643799
1783080856787394800,1.116394775390625,4.570291042327881,3.5706896781921387,5.210371494293213
1783080856807249400,1.13624951171875,3.5096726417541504,6.376872539520264,7.214360237121582
1783080856827153200,1.156153076171875,5.434698581695557,8.438288688659668,10.393823623657227
1783080856847154000,1.17615380859375,11.161321640014648,11.931211471557617,11.423335075378418
1783080856866985700,1.19598583984375,16.917255401611328,22.449462890625,6.665805816650391
1783080856886678800,1.2156787109375,27.87040138244629,26.924039840698242,8.270193099975586
1783080856906511000,1.235510986328125,40.58167266845703,18.836299896240234,15.247065544128418
1783080856926550300,1.25555029296875,41.75236129760742,13.143177032470703,16.795820236206055
1783080856946378800,1.275378662109375,32.06502151489258,10.408778190612793,12.838091850280762
1783080856966038300,1.295038330078125,19.325632095336914,9.113663673400879,9.627521514892578
1783080856985909000,1.314908935546875,5.429912567138672,9.0514497756958,6.996613502502441
1783080857005929200,1.33492919921875,-1.420140266418457,7.22452974319458,5.821139335632324
1783080857025607700,1.354607666015625,0.5742774605751038,3.920639991760254,5.3108696937561035
1783080857045628000,1.3746279296875,3.5120654106140137,1.394417405128479,4.046861171722412
1783080857065287000,1.394286865234375,3.4881372451782227,0.6406782865524292,2.612962245941162
1783080857085138000,1.414137939453125,0.2799602448940277,0.8129615187644958,1.4464613199234009
1783080857105007900,1.4340078125,-4.060619831085205,1.0139585733413696,1.4488540887832642
1783080857125047000,1.454047119140625,-7.192226886749268,1.394417405128479,1.7581263780593872
1783080857144875000,1.473875,-6.395416736602783,-0.058624155819416046,1.5882359743118286
1783080857164534000,1.493533935546875,-1.5445669889450073,-1.2652050256729126,-0.8303094506263733
1783080857184385000,1.513385009765625,1.7856439352035522,-1.8759729862213135,-4.038486480712891
1783080857204235500,1.533235595703125,2.7290141582489014,-1.2293126583099365,-6.303293228149414
1783080857224105500,1.55310546875,1.4769697189331055,-0.2883351147174835,-6.676573276519775
1783080857244125200,1.573125244140625,-0.9337990283966064,0.722034215927124,-6.138188362121582
1783080857263803400,1.592803466796875,-2.885145902633667,0.9493523836135864,-4.646263599395752
1783080857283823000,1.612822998046875,-2.8899314403533936,0.7028916478157043,-3.135794162750244
1783080857303501600,1.63250146484375,-1.231107234954834,0.41515472531318665,-2.4029922485351562
1783080857323521500,1.652521484375,1.3549357652664185,1.1623135805130005,-1.7665013074874878
1783080857343180300,1.67218017578125,5.115854740142822,3.5850465297698975,-0.12622138857841492
1783080857363031000,1.692031005859375,9.430712699890137,8.768498420715332,2.2534406185150146
1783080857382881500,1.711881591796875,14.139787673950195,16.43988800048828,4.4751763343811035
1783080857402751500,1.73175146484375,14.91565990447998,26.411378860473633,4.013361930847168
1783080857422771200,1.751771240234375,16.649259567260742,30.67538833618164,6.805187702178955
1783080857442429400,1.771429443359375,23.020151138305664,23.89771842956543,12.287742614746094
1783080857462279700,1.79127978515625,23.307289123535156,16.83709716796875,14.894722938537598
1783080857482130000,1.8111298828125,20.182861328125,14.782857894897461,12.302099227905273
1783080857501999600,1.83099951171875,12.265010833740234,14.275579452514648,8.95513916015625
1783080857522019000,1.85101904296875,2.6189444065093994,12.541979789733887,6.471987247467041
1783080857541677300,1.87067724609375,-2.830111026763916,8.787641525268555,5.016552448272705
1783080857581622300,1.910622314453125,5.125426292419434,0.9254241585731506,2.885744094848633
1783080857601423400,1.93042333984375,8.812766075134277,-0.0849452018737793,1.0085747241973877
1783080857621273000,1.950273193359375,6.538387775421143,-0.02512463741004467,-1.1700903177261353
1783080857641122600,1.97012255859375,1.689931035041809,0.35533416271209717,-3.2937204837799072
1783080857660972000,1.989971923828125,-1.8915263414382935,0.7938188910484314,-5.089533805847168
1783080857680821500,2.009821533203125,-2.554936408996582,0.4295116662979126,-5.407779216766357
1783080857700671000,2.0296708984375,-0.97926265001297,-0.3433700501918793,-5.357530117034912
1783080857720520400,2.0495205078125,0.5359922647476196,-0.9326026439666748,-5.704489231109619
1783080857740370000,2.069369873046875,1.158724308013916,-1.1240284442901611,-5.484349727630615
1783080857760219400,2.089219482421875,1.048654556274414,-0.9804590940475464,-4.397409915924072
1783080857779876600,2.108876708984375,0.7202396392822266,-0.34576287865638733,-3.0999016761779785
1783080857799725800,2.128725830078125,0.07896314561367035,0.5569294691085815,-2.163709878921509
1783080857819575000,2.148574951171875,0.14356936514377594,1.4997016191482544,-1.4069796800613403
1783080857839617000,2.168616943359375,2.1308085918426514,2.8600213527679443,0.3475574851036072
1783080857859466500,2.188466552734375,6.401997089385986,5.239683151245117,3.10109806060791
1783080857879162000,2.208162109375,10.599007606506348,11.108080863952637,5.401797294616699
1783080857899011300,2.22801123046875,11.45384407043457,23.536401748657227,4.013361930847168
1783080857918860800,2.24786083984375,16.835899353027344,31.8466739654541,2.967100143432617
1783080857938864000,2.267864013671875,35.405399322509766,23.088346481323242,11.368300437927246
1783080857958521300,2.287521240234375,51.16393280029297,10.52363395690918,15.02872085571289
1783080857978563300,2.307563232421875,45.630531311035156,11.400005340576172,8.50708293914795
1783080857998220300,2.32722021484375,24.291337966918945,13.94955825805664,3.2207393646240234
1783080858018069500,2.347069580078125,6.581458568572998,13.834702491760254,4.3483567237854
1783080858038111500,2.367111572265625,-5.171487808227539,9.78126049041748,6.091528415679932
1783080858057768700,2.386768798828125,-6.6490559577941895,4.854438781738281,5.162514686584473
1783080858077618000,2.406617919921875,-3.0287153720855713,-0.029910283163189888,1.7485551834106445
1783080858097467400,2.42646728515625,1.9387845993041992,-1.7611174583435059,-2.8319056034088135
1783080858117509400,2.44650927734375,4.890929698944092,-1.0618150234222412,-4.435695171356201
1783080858137359000,2.466359130859375,3.4881372451782227,-0.633499801158905,-3.1932218074798584
1783080858157016000,2.48601611328125,0.2273181527853012,-0.34576287865638733,-1.1820544004440308
1783080858176865500,2.505865478515625,-2.4113669395446777,-0.2021935135126114,-0.6125625967979431
1783080858196714800,2.52571484375,-3.1824541091918945,-0.22133609652519226,-1.0169496536254883
1783080858216756700,2.5457568359375,-1.9776679277420044,-0.44386860728263855,-1.5314065217971802
1783080858236606500,2.5656064453125,-0.5461617708206177,-0.5808576941490173,-1.8574285507202148
1783080858256456000,2.5854560546875,-0.2063809484243393,-0.6071787476539612,-1.771286964416504
1783080858276113200,2.605113037109375,-0.5030909776687622,-0.5377869009971619,-1.0528420209884644
1783080858295962400,2.62496240234375,-0.7304090857505798,-0.46061834692955017,-0.3655036687850952
1783080858316004400,2.64500439453125,-0.4911268353462219,-0.5377869009971619,0.019740786403417587
1783080858335853800,2.664853759765625,1.0121639966964722,-0.8895317912101746,0.21595224738121033
1783080858355511000,2.684510986328125,4.910071849822998,0.47258245944976807,-1.0336993932724
1783080858375360300,2.7043603515625,11.496914863586426,1.8305093050003052,-1.129412293434143
1783080858395402200,2.72440234375,18.169300079345703,4.6648077964782715,-0.1788634955883026
1783080858415251700,2.744251708984375,20.072790145874023,9.45583724975586,-0.27696922421455383
1783080858435101400,2.764101318359375,16.000205993652344,10.796415328979492,0.38344982266426086
1783080858454758400,2.78375830078125,19.048065185546875,9.16869831085205,3.211168050765991
1783080858474607900,2.80360791015625,30.272197723388672,9.348159790039062,3.187239646911621
1783080858494457000,2.82345703125,33.97808074951172,8.651249885559082,6.548557281494141
1783080858514499000,2.8434990234375,29.752357482910156,10.131211280822754,9.029315948486328
1783080858534348500,2.8633486328125,20.053647994995117,9.252447128295898,6.884150981903076
1783080858554005800,2.883005859375,9.34157943725586,7.22452974319458,2.4113669395446777
1783080858573855000,2.90285498046875,1.6755740642547607,5.36650276184082,0.12741780281066895
1783080858593704400,2.922704345703125,2.039283037185669,2.242074728012085,1.9543378353118896
1783080858613746400,2.942746337890625,6.378068923950195,-0.5545366406440735,2.217548370361328
1783080858633596000,2.962595947265625,9.262616157531738,-0.997208833694458,-0.4995017349720001
1783080858653253000,2.982253173828125,6.8518476486206055,-0.08733802288770676,-2.572882652282715
1783080858673102300,3.002102294921875,2.2504496574401855,0.3720839321613312,-3.1956145763397217
1783080858692951800,3.021951904296875,-1.9728822708129883,0.2835494875907898,-2.932404041290283
1783080858712993800,3.041993896484375,-3.9529430866241455,0.1543370634317398,-2.5322046279907227
1783080858732650800,3.061650634765625,-4.067798614501953,0.04187439754605293,-2.242672920227051
1783080858752500200,3.081500244140625,-2.7415764331817627,-0.3290131092071533,-2.09431791305542
1783080858772349400,3.101349365234375,-1.604387640953064,-1.0019944906234741,-1.6109678745269775
1783080858792199000,3.121198974609375,-0.6825526356697083,-2.3018953800201416,-0.9332008361816406
1783080858812241000,3.141240966796875,0.08374879509210587,-3.1854450702667236,-1.2681959867477417
1783080858831898000,3.160898193359375,0.4043870270252228,-2.950948476791382,-2.5393829345703125
1783080858851747300,3.180747314453125,1.563111424446106,-2.795415163040161,-3.9499518871307373
1783080858871635200,3.20063525390625,3.040081262588501,-2.122433662414551,-5.484349727630615
1783080858891484700,3.220484619140625,3.0616166591644287,-0.22612173855304718,-4.634299278259277
1783080858911488300,3.24048828125,6.818347930908203,7.131209850311279,-0.6628118753433228
1783080858931183900,3.260183837890625,19.397417068481445,16.16710662841797,5.24626350402832
1783080858951033300,3.280033447265625,41.24687957763672,13.868202209472656,20.48076629638672
1783080858970844400,3.299844482421875,55.70311737060547,5.85284423828125,27.10051155090332
1783080858990693600,3.319693603515625,56.591453552246094,5.740381717681885,11.485548973083496
1783080859010735600,3.339735595703125,48.525245666503906,7.289135932922363,1.5858432054519653
1783080859030585300,3.35958544921875,33.53062438964844,8.409575462341309,2.641676187515259
1783080859050435000,3.37943505859375,17.362321853637695,8.00518798828125,5.763711452484131
1783080859070284500,3.399284423828125,7.165307521820068,5.474180221557617,6.699305057525635
1783080859089941800,3.418941650390625,4.914857864379883,1.8089739084243774,4.566103935241699
1783080859109983500,3.4389833984375,3.5742788314819336,-0.5108676552772522,1.144965648651123
1783080859129640700,3.458640625,1.0265209674835205,-1.7635103464126587,-1.0528420209884644
1783080859149682400,3.478682373046875,-1.1521440744400024,-2.6973092555999756,-1.5702898502349854
1783080859169532000,3.498531982421875,-2.9042885303497314,-3.4510483741760254,-1.6612170934677124
1783080859189381600,3.518381591796875,-4.745565414428711,-3.961317777633667,-2.5393829345703125
1783080859209231000,3.538231201171875,-6.8380889892578125,-4.528416633605957,-3.5401811599731445
1783080859229080600,3.55808056640625,-7.728816986083984,-5.112864017486572,-4.2586259841918945
1783080859248930300,3.577930419921875,-7.491927623748779,-5.701498031616211,-4.517050743103027
1783080859268779800,3.59777978515625,-5.173880577087402,-6.262016773223877,-4.385445594787598
1783080859288629200,3.617629150390625,-2.507079839706421,-6.271588325500488,-4.579264163970947
1783080859308478700,3.637478759765625,-0.5557330846786499,-5.742774486541748,-5.774479389190674
1783080859328328200,3.657328125,0.9643075466156006,-4.518845558166504,-7.753942012786865
1783080859348177700,3.677177734375,1.4554343223571777,-2.764308452606201,-8.718847274780273
1783080859368027100,3.697027099609375,1.677966833114624,-1.334596872329712,-8.999405860900879
1783080859387876600,3.716876708984375,3.64127779006958,0.7172485589981079,-7.835896015167236
1783080859407726000,3.73672607421875,6.052046775817871,6.50608491897583,-4.476373195648193
1783080859427575600,3.756575439453125,12.020942687988281,19.700706481933594,-1.843071699142456
1783080859447425000,3.776425048828125,24.291337966918945,30.565319061279297,1.412961721420288
1783080859467274500,3.7962744140625,43.35136413574219,26.18166732788086,15.235101699829102
1783080859487124000,3.8161240234375,55.59783172607422,17.282760620117188,24.75674057006836
1783080859506973400,3.835973388671875,49.25086975097656,14.057832717895508,21.141185760498047
1783080859526823000,3.855822998046875,33.09931564331055,11.67996597290039,15.802200317382812
1783080859546634000,3.875634033203125,17.7362003326416,10.913663864135742,10.099506378173828
1783080859566521900,3.89552197265625,7.227520942687988,9.934999465942383,6.290132522583008
1783080859586371300,3.915371337890625,0.13878370821475983,6.190232276916504,4.985445976257324
1783080859606220800,3.935220703125,-3.696911096572876,2.210968017578125,4.377070903778076
1783080859626070300,3.9550703125,-4.661816596984863,-0.6095715761184692,3.404986619949341
1783080859645919700,3.974919677734375,-3.28773832321167,-2.455035924911499,1.2215359210968018
1783080859665769200,3.994769287109375,-0.2566302418708801,-3.4845480918884277,-0.8063812255859375
1783080859685618700,4.01461865234375,0.15074782073497772,-3.8368911743164062,-2.882154941558838
1783080859705468200,4.03446826171875,-1.8436698913574219,-3.5060834884643555,-5.6446685791015625
1783080859725317600,4.054317626953125,-3.5222349166870117,-3.187838077545166,-7.727620601654053
1783080859745167000,4.0741669921875,-2.98085880279541,-3.290729284286499,-8.340781211853027
1783080859765016600,4.0940166015625,-1.0390832424163818,-4.281956195831299,-7.857431411743164
1783080859784866000,4.113865966796875,1.0941181182861328,-4.986044406890869,-7.5673017501831055
1783080859804715500,4.133715576171875,1.5990036725997925,-4.682155609130859,-7.304090976715088
1783080859824565000,4.15356494140625,0.6963114142417908,-3.5994033813476562,-6.604788780212402
1783080859844414500,4.17341455078125,0.04546362906694412,-2.321038007736206,-5.434100151062012
1783080859864264000,4.193263916015625,0.038285162299871445,-0.8656035661697388,-4.2107696533203125
1783080859884113400,4.213113525390625,0.729810893535614,0.5377869009971619,-2.3503501415252686
1783080859903770600,4.2327705078125,2.504088878631592,2.5220351219177246,-0.7585247755050659
1783080859923812000,4.25281201171875,6.3493547439575195,7.569096088409424,-0.32961133122444153
1783080859943546000,4.272546142578125,11.09192943572998,16.511672973632812,-0.19561325013637543
1783080859963511000,4.292510986328125,19.617555618286133,24.76451873779297,0.5706881880760193
1783080859983360500,4.312360595703125,35.43172073364258,23.98146629333496,6.584449768066406
1783080860003056000,4.33205615234375,51.22135925292969,16.082759857177734,14.514264106750488
1783080860022867000,4.351866943359375,53.37370300292969,11.996416091918945,13.929817199707031
1783080860042716200,4.371716064453125,37.61517333984375,12.652050018310547,8.609973907470703
1783080860062758000,4.3917578125,19.78804588317871,14.395220756530762,5.912066459655762
1783080860082607600,4.411607666015625,5.6309099197387695,12.728620529174805,6.127420425415039
1783080860102264800,4.431264892578125,-3.2997024059295654,9.434301376342773,6.158527374267578
1783080860122114000,4.451114013671875,-4.086941242218018,4.875974178314209,5.686542987823486
1783080860141963300,4.47096337890625,-2.0207388401031494,1.1383854150772095,3.7118661403656006
1783080860162005200,4.491005126953125,0.2871387302875519,-0.8392825126647949,0.1824527233839035
1783080860181662200,4.510662109375,0.8374879360198975,-1.5649060010910034,-2.8869404792785645
1783080860201704200,4.5307041015625,-0.5437689423561096,-1.4949159622192383,-4.962714195251465
1783080860221361400,4.550361328125,-2.7726831436157227,-1.2532408237457275,-6.02811861038208
1783080860241210600,4.570210693359375,-3.572484254837036,-1.9716858863830566,-4.692325115203857
1783080860261252600,4.590252685546875,-2.3611178398132324,-3.2548370361328125,-2.7912275791168213
1783080860280909600,4.60990966796875,-0.4815555512905121,-4.497310161590576,-1.2394821643829346
1783080860300758800,4.6297587890625,1.6325032711029053,-5.0362935066223145,-1.038485050201416
1783080860320608300,4.649608154296875,2.8342983722686768,-4.569094657897949,-2.09431791305542
1783080860340457700,4.669457763671875,2.685943365097046,-3.4127633571624756,-2.8007988929748535
1783080860360499700,4.689499755859375,1.4267204999923706,-1.94297194480896,-2.7290141582489014
1783080860380157000,4.709156982421875,0.17706887423992157,-0.17587246000766754,-2.3742783069610596
1783080860400006100,4.729006103515625,0.33738797903060913,1.1575279235839844,-0.8733802437782288
1783080860419855600,4.748855712890625,1.7425731420516968,3.8368911743164062,0.5078766345977783
1783080860439705000,4.768705078125,3.4067811965942383,8.555537223815918,2.7589244842529297
1783080860459747000,4.7887470703125,2.994617462158203,15.970296859741211,4.118646144866943
1783080860479404000,4.808404052734375,4.156332969665527,27.402605056762695,-0.2721835672855377
1783080860499446000,4.828446044921875,17.8079833984375,31.166515350341797,2.9551360607147217
1783080860519103200,4.848103271484375,40.6247444152832,23.085952758789062,14.129019737243652
1783080860539145200,4.868145263671875,53.64409255981445,14.622539520263672,17.291732788085938
1783080860558994700,4.88799462890625,43.720458984375,13.356138229370117,11.686545372009277
1783080860578652000,4.90765185546875,25.36870574951172,12.508480072021484,6.632306098937988
1783080860598501000,4.927501220703125,11.36231803894043,12.003594398498535,3.4121651649475098
1783080860618350300,4.947350341796875,1.8143577575683594,11.301899909973145,1.731805443763733
1783080860638392300,4.967392333984375,-1.2957134246826172,9.429515838623047,1.3986048698425293
1783080860658049500,4.987049560546875,-1.4368900060653687,7.94297456741333,-0.6508477330207825
1783080860677898800,5.006898681640625,-0.6705885529518127,4.8568315505981445,-2.700300455093384
1783080860697748200,5.026748291015625,1.8741782903671265,2.03629207611084,-4.7234320640563965
1783080860717597400,5.046597412109375,3.9260237216949463,0.7076773047447205,-4.759324073791504
1783080860737639700,5.0666396484375,3.064009428024292,0.09690931439399719,-4.0767717361450195
1783080860757296600,5.086296630859375,-0.019740786403417587,-0.8297112584114075,-3.1334011554718018
1783080860777338600,5.106338623046875,-2.894717216491699,-1.7180466651916504,-2.331207513809204
1783080860796995600,5.12599560546875,-4.070191383361816,-2.170290231704712,-1.5894324779510498
1783080860817037600,5.14603759765625,-4.0319061279296875,-2.313859462738037,-0.8685946464538574
1783080860836887300,5.16588720703125,-3.208775281906128,-2.6662025451660156,-0.6484549641609192
1783080860856544300,5.185544189453125,-1.4009976387023926,-2.9389843940734863,-0.8255237936973572
1783080860876393500,5.2053935546875,0.26560330390930176,-2.87198543548584,-1.0265209674835205
1783080860896243000,5.225242919921875,1.536790370941162,-2.1774685382843018,-1.8263218402862549
1783080860916285000,5.245284912109375,1.9459630250930786,-0.6454638838768005,-1.6037893295288086
1783080860936134400,5.265134521484375,3.514458179473877,2.740380048751831,-0.6675975322723389
1783080860955791600,5.28479150390625,4.474578380584717,9.034700393676758,-0.7250252366065979
1783080860975833300,5.304833251953125,5.132604598999023,13.76770305633545,1.1473584175109863
1783080860995529000,5.324529052734375,9.638887405395508,14.833107948303223,1.9208383560180664
1783080861015532300,5.3445322265625,15.020944595336914,13.640883445739746,3.7405800819396973
1783080861035382000,5.364382080078125,23.644676208496094,11.684751510620117,4.601995944976807
1783080861055231500,5.3842314453125,30.935009002685547,12.178271293640137,0.10348957777023315
1783080861074888700,5.403888671875,26.797819137573242,13.143177032470703,-2.709871530532837
1783080861094738000,5.423738037109375,17.769699096679688,12.029915809631348,-0.4013960063457489
1783080861114780000,5.44377978515625,7.749754428863525,9.362516403198242,2.105085611343384
1783080861134629400,5.46362939453125,-0.46480581164360046,8.266005516052246,1.5517455339431763
1783080861154286300,5.483286376953125,-0.4624129831790924,5.155934810638428,1.9304096698760986
1783080861174135600,5.503135498046875,9.358927726745605,2.5220351219177246,0.6616154313087463
1783080861193985000,5.522985107421875,15.851851463317871,1.8831514120101929,3.493520975112915
1783080861214027000,5.543027099609375,12.870992660522461,3.7387852668762207,5.571687698364258
1783080861233837800,5.562837890625,4.737788677215576,3.43190598487854,2.5836503505706787
1783080861253533400,5.582533447265625,1.922034740447998,3.0035905838012695,-1.0241280794143677
1783080861273383000,5.6023828125,0.41156548261642456,1.3106685876846313,-1.454836130142212
1783080861293232000,5.622232177734375,-1.810170292854309,0.6478567123413086,-0.9355936646461487
1783080861313274000,5.642274169921875,-3.057429075241089,0.45104706287384033,-0.05922235921025276
1783080861332931300,5.661931396484375,-1.4967105388641357,0.7627122402191162,0.14656038582324982
1783080861352780500,5.681780517578125,-0.129810631275177,0.3242274820804596,-0.2386840581893921
1783080861372629800,5.701629638671875,0.1339980661869049,-0.029910283163189888,-1.6348960399627686
1783080861392479200,5.721479248046875,-0.6705885529518127,-0.12323036789894104,-1.466800332069397
1783080861412521200,5.741521240234375,-1.2861422300338745,-0.3074777126312256,-0.40378883481025696
1783080861432178400,5.761178466796875,-0.6921239495277405,-0.06340979784727097,-0.09272187948226929
1783080861452027600,5.781027587890625,1.9316060543060303,2.210968017578125,-0.5934200286865234
1783080861471877000,5.800877197265625,8.676374435424805,7.964509963989258,0.43130627274513245
1783080861491726600,5.8207265625,15.470794677734375,13.932807922363281,3.5748770236968994
1783080861511768600,5.8407685546875,19.643877029418945,14.299508094787598,7.6043901443481445
1783080861531425500,5.860425537109375,30.853652954101562,9.360123634338379,7.089933395385742
1783080861551467500,5.880467529296875,44.51487731933594,5.711069583892822,6.38584566116333
1783080861571124700,5.900124755859375,44.91986083984375,6.822535514831543,5.066802024841309
1783080861591166700,5.920166748046875,30.56651496887207,9.604191780090332,4.585246562957764
1783080861611016200,5.94001611328125,17.42692756652832,11.59382438659668,3.1896326541900635
1783080861630866000,5.959865966796875,11.551949501037598,8.11525821685791,2.4975085258483887
1783080861650523000,5.97952294921875,6.011368751525879,3.8560338020324707,1.6504493951797485
1783080861670372000,5.9993720703125,3.2727832794189453,1.327418327331543,-0.3128615617752075
1783080861690414000,6.0194140625,4.618147850036621,0.4893322288990021,-0.9595218896865845
1783080861710263600,6.039263671875,2.774477958679199,0.6119644045829773,-1.093519926071167
1783080861730113300,6.05911328125,-1.0223335027694702,1.0091729164123535,-1.3184453248977661
1783080861749962800,6.078962646484375,-2.8971099853515625,1.1383854150772095,-0.9260223507881165
1783080861769812200,6.098812255859375,-3.0311081409454346,0.8297112584114075,-1.2370892763137817
1783080861789661700,6.11866162109375,-2.2917258739471436,0.19262222945690155,-0.727418065071106
1783080861809511200,6.13851123046875,-0.97926265001297,-0.43190449476242065,0.12263216078281403
1783080861829361000,6.15836083984375,0.08135596662759781,-0.99481600522995,0.40259242057800293
1783080861849210400,6.17821044921875,0.7704889178276062,-1.1455638408660889,0.13938191533088684
1783080861869059800,6.198059814453125,0.9188438653945923,-1.3800604343414307,-0.5670989751815796
1783080861888909300,6.217909423828125,0.3852444589138031,-0.9924231767654419,-1.191625714302063
1783080861908758800,6.2377587890625,0.3206382393836975,-0.3481557071208954,-1.2179467678070068
1783080861928608300,6.257608154296875,0.9667003750801086,0.8871390223503113,-0.4013960063457489
1783080861948457700,6.277457763671875,3.0687949657440186,3.923032760620117,-0.5479564070701599
1783080861968307200,6.29730712890625,7.8526458740234375,8.438288688659668,-0.025722842663526535
1783080861988156700,6.31715673828125,15.348760604858398,11.160722732543945,0.898504912853241
1783080862008006100,6.337006103515625,21.202800750732422,11.751749992370605,3.800400495529175
1783080862027855600,6.356855712890625,24.336801528930664,9.41755199432373,7.137789726257324
1783080862047705000,6.376705078125,29.014768600463867,9.010771751403809,7.51585578918457
1783080862067554600,6.396554443359375,31.990842819213867,11.60100269317627,7.168896675109863
1783080862087404000,6.416404052734375,26.295326232910156,13.612170219421387,6.371488571166992
1783080862107253500,6.43625341796875,18.24826431274414,15.012569427490234,3.982254981994629
1783080862127103000,6.45610302734375,16.265810012817383,10.84427261352539,2.42093825340271
1783080862146913800,6.475913818359375,13.37587833404541,6.159125328063965,1.2406785488128662
1783080862166801700,6.4958017578125,6.655636310577393,3.2787652015686035,0.9511470198631287
1783080862186651100,6.515651123046875,3.3062827587127686,2.733201742172241,0.5395814776420593
1783080862206500600,6.53550048828125,3.514458179473877,2.6015963554382324,-0.38225340843200684
1783080862226350000,6.55535009765625,2.6261229515075684,2.321038007736206,-0.8997012972831726
1783080862246199600,6.575199462890625,-1.164108157157898,1.4662020206451416,-0.9523434042930603
1783080862266049000,6.595049072265625,-4.046263217926025,1.1383854150772095,-0.9882357716560364
1783080862285898500,6.6148984375,-4.4033918380737305,0.6215356588363647,-0.6747759580612183
1783080862305748000,6.634748046875,-3.4097721576690674,0.010767702013254166,-0.3846462368965149
1783080862325597400,6.654597412109375,-1.786242127418518,-0.5928218364715576,0.4336991012096405
1783080862345447000,6.674447021484375,-0.11066804826259613,-0.7651050686836243,0.1944168359041214
1783080862365296400,6.69429638671875,0.794417142868042,-0.7052844762802124,0.024526432156562805
1783080862385145900,6.714145751953125,1.3621143102645874,-0.2667997181415558,0.014955141581594944
1783080862404995300,6.733995361328125,3.0927233695983887,0.47976094484329224,-0.28654050827026367
1783080862424844800,6.7538447265625,4.625326156616211,1.4111671447753906,-0.9188438653945923
1783080862444694300,6.7736943359375,5.8821563720703125,3.273979663848877,-1.3806586265563965
1783080862464543700,6.793543701171875,7.945965766906738,5.435894966125488,-1.0336993932724
1783080862484393200,6.813393310546875,12.219547271728516,8.25404167175293,-0.06161518394947052
1783080862504127200,6.833127197265625,16.953147888183594,9.7669038772583,1.693520188331604
1783080862523899600,6.852899658203125,20.860628128051758,9.728618621826172,3.6879379749298096
1783080862543748900,6.872748779296875,23.987449645996094,10.02592658996582,6.534200668334961
1783080862583640000,6.91264013671875,23.62314224243164,11.273185729980469,5.868995666503906
1783080862603335700,6.932335693359375,28.983661651611328,10.104889869689941,4.956732273101807
