time,seconds_elapsed,z,y,x
1783081145875125500,0.11412548828125,0,0,0
1783081145894836700,0.133836669921875,-0.00119781494140625,-0.001155555248260498,-0.01076144352555275
1783081145914821600,0.153821533203125,0.010374069213867188,0.007266424596309662,-0.0072968825697898865
1783081145934533400,0.173533447265625,0.00418853759765625,-0.003620922565460205,-0.005608774721622467
1783081145954518500,0.1935185546875,0.0014352798461914062,-0.006659358739852905,0.0012805014848709106
1783081145974230300,0.213230224609375,0.0011968612670898438,-0.0036563649773597717,0.007074590772390366
1783081145994077200,0.2330771484375,0.003078460693359375,0.0008638650178909302,-0.004175398498773575
1783081146013924600,0.252924560546875,-0.005686759948730469,-0.0075506120920181274,-0.003631502389907837
1783081146033772300,0.272772216796875,0.005585670471191406,0.01038813591003418,-0.015974752604961395
1783081146053758700,0.2927587890625,-0.005747795104980469,0.0008068457245826721,-0.0035792849957942963
1783081146073471500,0.312471435546875,0.014363288879394531,-0.003544062376022339,0.003298413008451462
1783081146093457700,0.332457763671875,-0.0065860748291015625,0.007801920175552368,-0.007734794169664383
1783081146113170200,0.352170166015625,0.011601448059082031,0.004877865314483643,-0.0026967227458953857
1783081146133156000,0.372156005859375,-0.004787445068359375,0.00441327691078186,-0.01117897778749466
1783081146153007400,0.39200732421875,0.0022363662719726562,-0.0027006790041923523,-0.001471925526857376
1783081146172684800,0.411684814453125,-0.0023908615112304688,-0.00713648647069931,0.009866215288639069
1783081146192531200,0.43153125,-0.006758689880371094,-0.00663796067237854,0.007056117057800293
1783081146212551000,0.451551025390625,-0.01995086669921875,-0.006189495325088501,-0.0070771388709545135
1783081146232402200,0.471402099609375,0.010583877563476562,0.001020096242427826,-0.004412677139043808
1783081146252253200,0.491253173828125,0.0009565353393554688,0.000851064920425415,0.00018328800797462463
1783081146271965200,0.510965087890625,0.007752418518066406,0.0031698495149612427,0.0047586895525455475
1783081146291812000,0.53081201171875,-0.004027366638183594,-0.01517736166715622,0.007050149142742157
1783081146311625000,0.550625,-0.0038499832153320312,-0.003185562789440155,-0.006774540990591049
1783081146331471600,0.5704716796875,-0.005984306335449219,-0.014444872736930847,-0.011057090014219284
1783081146351491800,0.590491943359375,-0.017235755920410156,0.0021016597747802734,-0.005993623286485672
1783081146371343600,0.610343505859375,-0.009664535522460938,0.006505593657493591,0.0013672970235347748
1783081146391021600,0.630021484375,-0.009305953979492188,-0.0028776079416275024,-0.009988568723201752
1783081146410868200,0.6498681640625,0.011805534362792969,0.004231885075569153,0.009062319993972778
1783081146430888400,0.669888427734375,-0.0024709701538085938,0.004167415201663971,0.0018393583595752716
1783081146450740200,0.689740234375,0.016126632690429688,-0.0005184635519981384,-0.00976824015378952
1783081146470418000,0.70941796875,0.0017023086547851562,0.00420776754617691,-0.011732958257198334
1783081146490299100,0.729299072265625,0.010903358459472656,0.008777275681495667,-0.002059970051050186
1783081146510285600,0.74928564453125,-0.003345489501953125,0.008363783359527588,0.0072907134890556335
1783081146530137000,0.76913720703125,0.0013952255249023438,-0.003406114876270294,0.0024431832134723663
1783081146549987800,0.78898779296875,0.015233039855957031,-0.0006963536143302917,-0.006871551275253296
1783081146569665300,0.808665283203125,-0.0014753341674804688,0.0017214193940162659,-0.0019896477460861206
1783081146589511400,0.828511474609375,-0.0014257431030273438,0.001744881272315979,0.0027297362685203552
1783081146609358000,0.848358154296875,-0.003692626953125,-0.0007467865943908691,0.0072932131588459015
1783081146629190100,0.868190185546875,0.00106048583984375,0.0039876773953437805,0.009589534252882004
1783081146649313000,0.88831298828125,0.0010271072387695312,-0.0008967667818069458,0.0002392120659351349
1783081146669123000,0.908123046875,0.0009937286376953125,0.00827084481716156,0.0002554655075073242
1783081146688941300,0.92794140625,0.0032758712768554688,0.005762457847595215,0.0004732497036457062
1783081146708790500,0.94779052734375,0.010110855102539062,-0.0036063343286514282,0.01225467398762703
1783081146748488400,0.987488525390625,0.004975318908691406,0.0051866620779037476,0.0023158229887485504
1783081146768337400,1.00733740234375,-0.002132415771484375,-0.004363901913166046,-0.000051487237215042114
1783081146787994000,1.026994140625,-0.0020608901977539062,-0.013395920395851135,-0.011597700417041779
1783081146808035000,1.04703515625,-0.0019922256469726562,0.001018621027469635,-0.0019290223717689514
1783081146827691800,1.06669189453125,0.0050182342529296875,0.00338011234998703,0.005302920937538147
1783081146847540500,1.08654052734375,-0.015977859497070312,0.010089553892612457,-0.001794174313545227
1783081146867581700,1.106581787109375,-0.0015573501586914062,0.0050031766295433044,-0.004024256020784378
1783081146887238400,1.12623828125,-0.0015039443969726562,-0.004540100693702698,-0.0013526715338230133
1783081146907125800,1.146125732421875,0.005489349365234375,0.00032103806734085083,-0.003597661852836609
1783081146926974500,1.165974365234375,-0.008580207824707031,0.0050199925899505615,0.005804106593132019
1783081146946823400,1.185823486328125,0.00559234619140625,0.002620108425617218,-0.001306835561990738
1783081146966826500,1.205826416015625,-0.017739295959472656,-0.0020145252346992493,0.012647543102502823
1783081146986521600,1.225521484375,0.0013685226440429688,-0.001867145299911499,0.01013503223657608
1783081147006332200,1.245332275390625,-0.0009889602661132812,-0.001925736665725708,-0.006180208176374435
1783081147026180900,1.265180908203125,-0.0032701492309570312,-0.0019816383719444275,0.0056220367550849915
1783081147046029800,1.28502978515625,0.0014657974243164062,-0.011092305183410645,-0.006314009428024292
1783081147066071300,1.3050712890625,0.001415252685546875,0.005560815334320068,0.007605869323015213
1783081147085920500,1.32492041015625,-0.005574226379394531,0.007569767534732819,-0.0018809586763381958
1783081147105577000,1.344576904296875,-0.0030727386474609375,-0.0043734535574913025,0.007463347166776657
1783081147125426000,1.364426025390625,-0.014542579650878906,-0.006460241973400116,-0.002017304301261902
1783081147145275000,1.38427490234375,0.01602935791015625,0.01003669947385788,-0.001925792545080185
1783081147165316400,1.40431640625,-0.003021240234375,-0.008730381727218628,0.007421925663948059
1783081147184972800,1.423972900390625,0.006335258483886719,0.0034116581082344055,-0.002059008926153183
1783081147204821800,1.44382177734375,-0.000820159912109375,-0.0010490566492080688,0.0026626884937286377
1783081147224863200,1.46386328125,-0.0054225921630859375,0.008326098322868347,0.01648622378706932
1783081147244712400,1.48371240234375,0.0063304901123046875,0.008130379021167755,-0.009495951235294342
1783081147264561700,1.503561767578125,-0.00545501708984375,0.0035123825073242188,0.004731211811304092
1783081147284201500,1.523201416015625,0.003985404968261719,0.0032764896750450134,0.013855092227458954
1783081147304066600,1.543066650390625,-0.007718086242675781,-0.010838307440280914,0.02036215364933014
1783081147323915500,1.56291552734375,-0.0005159378051757812,0.0011767372488975525,0.00370929017663002
1783081147343957000,1.58295703125,-0.012071609497070312,0.0033306628465652466,0.003407265990972519
1783081147363806200,1.60280615234375,-0.00009632110595703125,0.0009861066937446594,0.0010035671293735504
1783081147383463000,1.622462890625,-0.007037162780761719,0.0010333061218261719,0.007937327027320862
1783081147403311600,1.6423115234375,0.009398460388183594,-0.001234680414199829,0.005382627248764038
1783081147423160600,1.66216064453125,0.0021419525146484375,0.0012026503682136536,0.00522889569401741
1783081147443202000,1.6822021484375,0.004382133483886719,0.006076805293560028,-0.004379916936159134
1783081147463051300,1.70205126953125,-0.007335662841796875,-0.017188824713230133,0.0004191398620605469
1783081147482708000,1.7217080078125,-0.009407997131347656,0.0021783336997032166,-0.0020841695368289948
1783081147502749200,1.741749267578125,0.00016307830810546875,-0.0003299042582511902,0.002435728907585144
1783081147522406000,1.761406005859375,-0.009099960327148438,0.00901874154806137,0.00026315823197364807
1783081147542447000,1.781447021484375,-0.004169464111328125,-0.002569355070590973,-0.006461422890424728
1783081147562296300,1.80129638671875,0.009856224060058594,0.011484436690807343,-0.0064212866127491
1783081147581953000,1.820953125,-0.022874832153320312,0.0019241124391555786,-0.0038688108325004578
1783081147601801700,1.8408017578125,-0.00591278076171875,0.0019417554140090942,-0.003915082663297653
1783081147621843200,1.86084326171875,0.0035400390625,-0.0026691779494285583,-0.006275899708271027
1783081147641692200,1.880692138671875,0.008050918579101562,0.002130359411239624,0.003216538578271866
1783081147661541400,1.900541259765625,-0.008418083190917969,0.004454582929611206,-0.0038095861673355103
1783081147681197800,1.92019775390625,-0.0011949539184570312,0.004386156797409058,0.0032846108078956604
1783081147701046800,1.940046875,-0.015040397644042969,-0.009766459465026855,-0.006058182567358017
1783081147720895700,1.959895751953125,-0.000652313232421875,-0.00010250508785247803,0.00805438682436943
1783081147740937000,1.97993701171875,-0.0006303787231445312,0.004611320793628693,0.0008672364056110382
1783081147760786200,1.9997861328125,0.008647918701171875,0.004538446664810181,0.0008625984191894531
1783081147780635100,2.01963525390625,0.00373077392578125,0.025298498570919037,-0.006083667278289795
1783081147800291800,2.039291748046875,-0.005650520324707031,-0.00092305988073349,0.0035996809601783752
1783081147820333000,2.0593330078125,-0.0008335113525390625,-0.0031250640749931335,0.019704945385456085
1783081147840182300,2.079182373046875,0.010766983032226562,-0.007568836212158203,0.002871628850698471
1783081147860031200,2.09903125,0.0034656524658203125,0.004336267709732056,0.003001078963279724
1783081147879688000,2.11868798828125,0.007979393005371094,0.006586179137229919,0.010067213326692581
1783081147899536600,2.13853662109375,0.01697063446044922,0.011076278984546661,0.002812732011079788
1783081147919578000,2.158578125,0.007145881652832031,-0.0007823258638381958,0.004856429994106293
1783081147939427000,2.178427001953125,0.004589080810546875,-0.005102328956127167,-0.002624809741973877
1783081147959276300,2.1982763671875,0.011381149291992188,-0.00042353570461273193,-0.007141828536987305
1783081147978971400,2.217971435546875,-0.0005712509155273438,0.011442169547080994,-0.00687967985868454
1783081147998820000,2.237820068359375,0.004073143005371094,-0.00022848695516586304,0.002431955188512802
1783081148018823200,2.2578232421875,-0.0006895065307617188,-0.004970669746398926,0.002375353127717972
1783081148038479600,2.277479736328125,-0.005295753479003906,0.004532672464847565,0.004634607583284378
1783081148058328600,2.29732861328125,-0.002803802490234375,0.004262425005435944,-0.002437382936477661
1783081148078177300,2.31717724609375,-0.005024909973144531,0.004201211035251617,-0.013903837651014328
1783081148098026200,2.337026123046875,-0.014115333557128906,0.0041420310735702515,-0.0018441341817378998
1783081148118067700,2.357067626953125,0.0025568008422851562,0.0017712116241455078,-0.004072550684213638
1783081148137917000,2.3769169921875,0.007098197937011719,-0.005149215459823608,0.014403101056814194
1783081148157573400,2.396573486328125,-0.011653900146484375,0.00898885726928711,0.007202841341495514
1783081148177422300,2.41642236328125,0.01187896728515625,0.011084474623203278,0.01181672140955925
1783081148197271300,2.436271240234375,0.0022258758544921875,0.008481457829475403,-0.0070680417120456696
1783081148217312500,2.4563125,0.0044651031494140625,-0.007920362055301666,0.0001352466642856598
1783081148236969200,2.47596923828125,-0.0026264190673828125,-0.0031464695930480957,-0.000044208019971847534
1783081148257010700,2.4960107421875,-0.011796951293945312,0.0062976256012916565,-0.000018227845430374146
1783081148276667100,2.515667236328125,0.011738777160644531,-0.0005764216184616089,0.009263988584280014
1783081148296516000,2.53551611328125,0.0020875930786132812,-0.007218591868877411,0.004350673407316208
1783081148336392700,2.575392822265625,0.006655693054199219,0.009768515825271606,0.0018329843878746033
1783081148356299300,2.59529931640625,-0.0005092620849609375,-0.006676755845546722,-0.002832554280757904
1783081148376096300,2.61509619140625,0.0041351318359375,-0.008687935769557953,0.00885803997516632
1783081148395946500,2.634946533203125,-0.0006284713745117188,-0.0015752390027046204,-0.012041538953781128
1783081148415796500,2.65479638671875,0.006335258483886719,0.005502238869667053,0.0022718682885169983
1783081148435646500,2.674646484375,-0.0031366348266601562,0.00560065358877182,0.0020194649696350098
1783081148455496000,2.694495849609375,0.008539199829101562,0.0031804442405700684,-0.01673967018723488
1783081148475345400,2.714345458984375,0.012882232666015625,-0.008415743708610535,-0.006898447871208191
1783081148495021800,2.734021728515625,0.0031948089599609375,0.00351782888174057,-0.00432867556810379
1783081148514867000,2.753866943359375,-0.0015392303466796875,-0.0011473670601844788,0.005097467452287674
1783081148534886000,2.773885986328125,0.0008268356323242188,-0.008173421025276184,0.0095808245241642
1783081148554736400,2.793736328125,-0.013085365295410156,0.017437249422073364,0.0025435462594032288
1783081148574413600,2.81341357421875,0.003551483154296875,-0.0085221529006958,-0.006774742156267166
1783081148594259700,2.833259765625,-0.0011949539184570312,-0.010471619665622711,0.005047328770160675
1783081148614279200,2.853279052734375,0.00115966796875,-0.005614899098873138,-0.004354000091552734
1783081148634130400,2.87313037109375,-0.0035076141357421875,-0.003032468259334564,-0.0041845813393592834
1783081148653981200,2.892981201171875,0.005866050720214844,-0.0003351569175720215,0.01006651297211647
1783081148673658400,2.912658447265625,0.0010423660278320312,0.006500139832496643,-0.004131324589252472
1783081148693504500,2.93250439453125,0.003322601318359375,0.0015336871147155762,-0.008599482476711273
1783081148713351000,2.952350830078125,-0.0037298202514648438,-0.0007509663701057434,0.0011699572205543518
1783081148733371100,2.97237109375,-0.0036058425903320312,0.0016700252890586853,0.0034698471426963806
1783081148753222700,2.99222265625,-0.008114814758300781,-0.005247943103313446,0.0010640770196914673
1783081148772900600,3.011900634765625,-0.01710224151611328,0.013522297143936157,-0.00357610359787941
1783081148792747000,3.0317470703125,-0.014217376708984375,0.0013795197010040283,-0.005747020244598389
1783081148812767200,3.051767333984375,0.014029502868652344,0.0037304311990737915,-0.005529589951038361
1783081148832618800,3.07161865234375,0.006619453430175781,0.0013725608587265015,0.010879766196012497
1783081148852469800,3.0914697265625,0.008714675903320312,-0.00805085152387619,0.008226998150348663
1783081148872147200,3.111147216796875,-0.0008325576782226562,0.012928001582622528,-0.0035951249301433563
1783081148892166400,3.13116650390625,0.0038213729858398438,0.0010066628456115723,-0.01291104406118393
1783081148912017400,3.151017333984375,-0.010191917419433594,0.0010539814829826355,-0.005513213574886322
1783081148931868000,3.170867919921875,-0.0005960464477539062,0.0011006668210029602,0.003752831369638443
1783081148951718100,3.19071826171875,0.008678436279296875,-0.005596444010734558,0.001138046383857727
1783081148971429600,3.2104296875,-0.0054988861083984375,-0.0007008090615272522,0.010182242840528488
1783081148991414500,3.23041455078125,-0.009943962097167969,-0.005223885178565979,-0.001905631273984909
1783081149011264800,3.2502646484375,0.008902549743652344,0.0019742920994758606,-0.011075403541326523
1783081149031114800,3.27011474609375,-0.009908676147460938,-0.0005260035395622253,0.010147597640752792
1783081149050964700,3.28996484375,-0.0003223419189453125,-0.004855453968048096,0.012148018926382065
1783081149070641200,3.30964111328125,-0.0026264190673828125,0.00927291065454483,-0.009062383323907852
1783081149090486500,3.329486572265625,0.009033203125,-0.00021291524171829224,0.002835940569639206
1783081149110505700,3.349505615234375,0.004101753234863281,-0.00012426823377609253,0.00950641930103302
1783081149130356500,3.3693564453125,0.00627899169921875,0.0069048404693603516,-0.0048721469938755035
1783081149150207000,3.38920703125,-0.0031881332397460938,0.01601313054561615,-0.000056665390729904175
1783081149170057200,3.40905712890625,0.00849151611328125,-0.0029539987444877625,0.009429391473531723
1783081149189734000,3.42873388671875,0.010522842407226562,0.00185433030128479,-0.00011707469820976257
1783081149209752600,3.448752685546875,-0.008341789245605469,0.0016714036464691162,0.002225711941719055
1783081149229603000,3.46860302734375,-0.008062362670898438,-0.0031331852078437805,-0.004767373204231262
1783081149249453000,3.488453125,0.0060901641845703125,0.008825041353702545,-0.00941392406821251
1783081149269130000,3.5081298828125,0.0035724639892578125,0.006297558546066284,-0.004445917904376984
1783081149288975600,3.5279755859375,-0.0034894943237304688,0.001540638506412506,-0.001957688480615616
1783081149308925400,3.547925537109375,0.0058841705322265625,0.0038858801126480103,0.009705308824777603
1783081149328740400,3.567740234375,-0.0035696029663085938,0.0038370713591575623,0.002462860196828842
1783081149348519400,3.58751953125,0.0034923553466796875,0.0014753639698028564,-0.0022238269448280334
1783081149368366300,3.607366455078125,0.0056915283203125,0.0151933953166008,0.0001903437077999115
1783081149388213800,3.6272138671875,0.000873565673828125,-0.0062635913491249084,-0.006736282259225845
1783081149408234500,3.647234375,-0.008412361145019531,-0.008490324020385742,-0.0018584579229354858
1783081149427913200,3.666913330078125,-0.0035028457641601562,0.008073605597019196,0.007485136389732361
1783081149447760400,3.686760498046875,0.00818634033203125,0.005570955574512482,-0.00894084945321083
1783081149467608000,3.706608154296875,-0.0013427734375,0.002951711416244507,-0.0016739778220653534
1783081149487456000,3.7264560546875,0.0010175704956054688,-0.006523393094539642,-0.019906725734472275
1783081149507477200,3.746477294921875,-0.01290130615234375,0.0007187947630882263,-0.0028152205049991608
1783081149527329800,3.766329833984375,0.010670661926269531,0.01697646826505661,0.0040450990200042725
1783081149547008300,3.78600830078125,-0.0012569427490234375,-0.0020243972539901733,-0.0006944574415683746
1783081149566855400,3.80585546875,-0.008158683776855469,-0.004190452396869659,-0.0029614269733428955
1783081149586702800,3.825702880859375,-0.0009431838989257812,0.007402077317237854,-0.005352374166250229
1783081149606723600,3.8457236328125,-0.005543708801269531,0.0026081129908561707,-0.007666554301977158
1783081149626402600,3.865402587890625,-0.021558761596679688,-0.00897061824798584,0.0018706433475017548
1783081149646250000,3.88525,-0.004638671875,-0.0018484815955162048,-0.0027962252497673035
1783081149666270700,3.905270751953125,0.004773139953613281,0.005237855017185211,-0.0026785284280776978
1783081149685949400,3.924949462890625,0.0022983551025390625,0.002829030156135559,-0.00044998154044151306
1783081149705970000,3.944969970703125,-0.007038116455078125,0.0030189454555511475,0.008644413203001022
1783081149725648600,3.964648681640625,0.0070819854736328125,0.0006840825080871582,0.005866743624210358
1783081149745668900,3.9846689453125,0.0045318603515625,0.0005411207675933838,-0.005874905735254288
1783081149765347000,4.00434716796875,-0.0002460479736328125,0.005033761262893677,0.0012895464897155762
1783081149785194200,4.0241943359375,0.004390716552734375,-0.006826058030128479,0.008214011788368225
1783081149805214700,4.044214599609375,-0.00501251220703125,-0.009034030139446259,-0.005921661853790283
1783081149825066800,4.064066650390625,0.011355400085449219,0.007548719644546509,-0.012643177062273026
1783081149844918000,4.08391796875,0.010976791381835938,0.00043573230504989624,-0.0029384978115558624
1783081149864769000,4.10376904296875,-0.0032739639282226562,0.00030206143856048584,-0.009557094424962997
1783081149884619500,4.12361962890625,-0.005478858947753906,-0.004254959523677826,-0.002068720757961273
1783081149904469800,4.1434697265625,-0.012237548828125,-0.008661054074764252,0.007483042776584625
1783081149924319500,4.163319580078125,-0.018774032592773438,0.005594857037067413,0.0001137666404247284
1783081149944169500,4.18316943359375,-0.008891105651855469,0.00780264288187027,0.009390447288751602
1783081149964019000,4.20301904296875,-0.008594512939453125,-0.001635134220123291,-0.004786033183336258
1783081149983868400,4.222868408203125,0.00557708740234375,0.0008146017789840698,0.004655349999666214
1783081150003718000,4.2427177734375,-0.00386810302734375,-0.003558613359928131,0.002211429178714752
1783081150023428600,4.2624287109375,0.0032052993774414062,0.003583468496799469,-0.004581853747367859
1783081150043274500,4.2822744140625,0.0031003952026367188,0.005657389760017395,-0.008834131062030792
1783081150063259400,4.30225927734375,0.0029973983764648438,0.0009214207530021667,0.0007423534989356995
1783081150083110000,4.32210986328125,0.002895355224609375,-0.005769714713096619,0.005372043699026108
1783081150102959900,4.3419599609375,-0.0041446685791015625,-0.003182150423526764,0.009846039116382599
1783081150122809600,4.3618095703125,0.0052509307861328125,0.013205520808696747,0.004913330078125
1783081150142659300,4.381659423828125,-0.004181861877441406,0.008217394351959229,0.00014504045248031616
1783081150162509000,4.401509033203125,-0.006358146667480469,-0.005862034857273102,-0.00003643333911895752
1783081150182358500,4.421358642578125,0.010054588317871094,0.0013573914766311646,0.0046178437769412994
1783081150202207700,4.441207763671875,0.00046253204345703125,0.003707386553287506,0.0023747235536575317
1783081150222057000,4.461056884765625,-0.006495475769042969,0.0011493414640426636,0.0023198463022708893
1783081150241802200,4.48080224609375,0.0052947998046875,0.0009915977716445923,-0.0021622590720653534
1783081150261752800,4.5007529296875,0.009748458862304688,-0.00127459317445755,0.009506184607744217
1783081150281602600,4.5206025390625,-0.004466056823730469,0.005791924893856049,-0.00024490803480148315
1783081150301382700,4.540382568359375,-0.0020046234130859375,0.0033660009503364563,0.004217378795146942
1783081150321299700,4.5602998046875,-0.006567955017089844,0.0058518871665000916,-0.0049534328281879425
1783081150341149400,4.5801494140625,0.0005950927734375,-0.012777462601661682,0.004694454371929169
1783081150360999000,4.5999990234375,0.0028896331787109375,0.003730088472366333,-0.0023795701563358307
1783081150380848400,4.619848388671875,0.00742340087890625,0.005800068378448486,0.004667207598686218
1783081150400697600,4.639697509765625,0.014120101928710938,0.017058633267879486,0.00010804831981658936
1783081150420546800,4.659546875,-0.00717926025390625,0.00017014890909194946,-0.00007082149386405945
1783081150440396000,4.67939599609375,-0.009253501892089844,-0.004382498562335968,0.011529169976711273
1783081150460245200,4.699245361328125,-0.004317283630371094,-0.006469957530498505,0.0019115693867206573
1783081150480094500,4.719094482421875,-0.008801460266113281,0.010027311742305756,-0.005071055144071579
1783081150499943400,4.738943359375,-0.010823249816894531,0.0028307363390922546,-0.0002489611506462097
1783081150519792600,4.758792724609375,-0.0035190582275390625,-0.0018115639686584473,0.002298906445503235
1783081150539641600,4.7786416015625,-0.008029937744140625,0.01221698522567749,-0.0023808591067790985
1783081150559490600,4.798490478515625,0.006123542785644531,0.01652035117149353,0.006981737911701202
1783081150579339800,4.81833984375,0.00592041015625,-0.004979923367500305,-0.00016989558935165405
1783081150599015700,4.838015625,-0.0035343170166015625,-0.00010500103235244751,0.004488617181777954
1783081150618860500,4.857860595703125,0.0035257339477539062,-0.009076423943042755,0.0136222243309021
1783081150638706200,4.8777060546875,-0.005848884582519531,0.0005654767155647278,-0.0006925538182258606
1783081150658725400,4.897725341796875,-0.0033397674560546875,0.005256950855255127,0.006298191845417023
1783081150678403300,4.9174033203125,0.010659217834472656,0.000533081591129303,0.006112314760684967
1783081150698249700,4.937249755859375,-0.0035829544067382812,0.0005961507558822632,-0.0010103397071361542
1783081150718269700,4.957269775390625,0.00811004638671875,0.007398366928100586,-0.01020975410938263
1783081150737948000,4.976947998046875,0.0008983612060546875,0.007032722234725952,-0.009845361113548279
1783081150757968000,4.9969677734375,-0.00376129150390625,0.009194232523441315,0.002079267054796219
1783081150777646000,5.01664599609375,-0.0013227462768554688,-0.009546294808387756,0.008779410272836685
1783081150797493000,5.036492919921875,0.010293960571289062,-0.0068328529596328735,0.013139821588993073
1783081150817340400,5.05634033203125,0.00069427490234375,-0.0180971622467041,-0.0009607486426830292
1783081150837188000,5.07618798828125,0.005299568176269531,0.017302818596363068,-0.0030179470777511597
1783081150857209000,5.096208984375,-0.0064487457275390625,0.0073483288288116455,-0.007722910493612289
1783081150876887800,5.1158876953125,-0.013178825378417969,-0.006701871752738953,0.0016183480620384216
1783081150896735500,5.135735595703125,0.01966381072998047,0.011917568743228912,0.0039044544100761414
1783081150916583400,5.15558349609375,-0.011077880859375,-0.002285197377204895,0.01557144895195961
1783081150936431400,5.175431396484375,-0.013022422790527344,0.011557288467884064,-0.0011240765452384949
1783081150956452600,5.19545263671875,-0.0033311843872070312,0.013567984104156494,0.0012522675096988678
1783081150976131800,5.2151318359375,0.00372314453125,0.013196803629398346,-0.005707196891307831
1783081150996152600,5.235152587890625,-0.0033445358276367188,0.0035818293690681458,0.003766525536775589
1783081151015831300,5.254831298828125,0.00833892822265625,0.010486699640750885,0.010609619319438934
1783081151035851800,5.274851806640625,-0.00119781494140625,-0.0013532862067222595,-0.003605913370847702
1783081151055703800,5.294703857421875,-0.0011577606201171875,-0.0012273192405700684,-0.0057758428156375885
1783081151075416300,5.314416259765625,-0.005747795104980469,-0.0011061206459999084,-0.0009304285049438477
1783081151095264000,5.334263916015625,-0.0032444000244140625,0.0038412585854530334,-0.0008751451969146729
1783081151115112000,5.35411181640625,-0.007765769958496094,-0.00546351820230484,0.0036062002182006836
1783081151135098400,5.374098388671875,0.013322830200195312,0.0015408918261528015,-0.003432750701904297
1783081151154950000,5.393949951171875,-0.001007080078125,-0.0009449347853660583,-0.005608446896076202
1783081151174627800,5.4136279296875,0.0013418197631835938,-0.0031476840376853943,-0.0028838850557804108
1783081151194474200,5.43347412109375,-0.007959365844726562,0.003981247544288635,0.004380565136671066
1783081151214321400,5.4533212890625,-0.0030651092529296875,-0.009956985712051392,-0.007112283259630203
1783081151234341600,5.473341552734375,-0.009904861450195312,0.004140175879001617,-0.0022219382226467133
1783081151254193700,5.493193603515625,-0.009573936462402344,-0.007688887417316437,-0.006750982254743576
1783081151274045000,5.513044921875,0.0023183822631835938,-0.005037359893321991,0.012214366346597672
1783081151293722400,5.532722412109375,0.016126632690429688,0.002154827117919922,0.009518273174762726
1783081151313568800,5.55256884765625,-0.009868621826171875,0.006792604923248291,-0.00003230944275856018
1783081151333588700,5.572588623046875,0.004344940185546875,-0.00009284913539886475,-0.002321150153875351
1783081151353440300,5.592440185546875,0.0018863677978515625,-0.000008918344974517822,-0.006848294287919998
1783081151373118000,5.612117919921875,-0.007433891296386719,0.011643484234809875,0.007290404289960861
1783081151392964400,5.63196435546875,0.011328697204589844,-0.0002357885241508484,0.00012847408652305603
1783081151412984300,5.651984375,0.0016946792602539062,0.011426553130149841,0.002667095512151718
1783081151432835800,5.6718359375,0.0039520263671875,0.00649772584438324,-0.01359829306602478
1783081151452686800,5.691686767578125,0.010766029357910156,-0.005410909652709961,0.005595318973064423
1783081151472364300,5.7113642578125,-0.00579071044921875,-0.0009199529886245728,0.007946427911520004
1783081151492210400,5.73121044921875,0.008289337158203125,-0.00563812255859375,0.014648988842964172
1783081151512230100,5.751230224609375,-0.0012464523315429688,-0.009997434914112091,0.007039356976747513
1783081151532081400,5.771081298828125,0.010364532470703125,0.004503950476646423,-0.007258303463459015
1783081151551932400,5.790932373046875,-0.006180763244628906,0.002120271325111389,-0.01373434066772461
1783081151571609600,5.810609619140625,-0.0013437271118164062,0.0019305646419525146,-0.0014813318848609924
1783081151591455700,5.830455810546875,-0.00592803955078125,-0.0005692169070243835,0.005333218723535538
1783081151611475500,5.850475341796875,-0.012673377990722656,-0.002985730767250061,0.005179926753044128
1783081151631326700,5.87032666015625,-0.0006780624389648438,-0.0004909709095954895,0.01428910344839096
1783081151651177500,5.890177490234375,0.001659393310546875,-0.002709120512008667,0.009206879884004593
1783081151670854700,5.909854736328125,-0.007653236389160156,0.015976473689079285,-0.007276710122823715
1783081151690873600,5.92987353515625,0.018059730529785156,0.00626884400844574,-0.007008254528045654
1783081151710724400,5.949724365234375,-0.001056671142578125,0.012882992625236511,0.007135983556509018
1783081151730574800,5.969574951171875,0.00360870361328125,-0.0038672685623168945,0.009437691420316696
1783081151750425000,5.989425048828125,-0.001140594482421875,0.007914453744888306,0.011461760848760605
1783081151770101800,6.009101806640625,-0.0011014938354492188,-0.006354734301567078,0.006474971771240234
1783081151789947400,6.028947509765625,0.008193016052246094,0.0031954944133758545,-0.005288567394018173
1783081151809966600,6.048966552734375,0.0032930374145507812,-0.0016608983278274536,0.0020580030977725983
1783081151829817600,6.068817626953125,0.0008697509765625,0.003104105591773987,0.013585634529590607
1783081151849668000,6.088668212890625,0.0008392333984375,-0.006176084280014038,0.003698553889989853
1783081151869345300,6.10834521484375,-0.010760307312011719,0.005481787025928497,0.003597911447286606
1783081151889191200,6.128191162109375,0.008114814758300781,0.005179017782211304,0.0035022422671318054
1783081151909210600,6.148210693359375,0.0009002685546875,0.009716719388961792,0.0010955817997455597
1783081151929062000,6.168061767578125,0.003185272216796875,-0.0044126734137535095,-0.005658920854330063
1783081151948912600,6.18791259765625,-0.015437126159667969,0.009701631963253021,0.013069123029708862
1783081151968589800,6.20758984375,-0.00103759765625,-0.006742373108863831,0.008028753101825714
1783081151988435700,6.227435791015625,0.0013132095336914062,0.002819836139678955,0.00567043200135231
1783081152008455200,6.247455078125,-0.014932632446289062,0.0028073787689208984,-0.0014372877776622772
1783081152028133000,6.267133056640625,0.0063915252685546875,0.0191938579082489,-0.008507661521434784
1783081152048152800,6.28715283203125,0.00849151611328125,-0.004305712878704071,-0.0012564212083816528
1783081152068004000,6.307004150390625,0.005892753601074219,-0.015653297305107117,0.003438517451286316
1783081152087716400,6.32671630859375,-0.008189201354980469,0.0011495202779769897,-0.0012807883322238922
1783081152107702000,6.346701904296875,-0.007916450500488281,0.015078969299793243,0.001100730150938034
1783081152127414300,6.366414306640625,0.003920555114746094,-0.0017436444759368896,0.0012876465916633606
1783081152147400000,6.38639990234375,-0.0077800750732421875,-0.006434231996536255,-0.007784698158502579
1783081152167077400,6.406077392578125,-0.0028924942016601562,-0.0061386749148368835,0.004072230309247971
1783081152187096800,6.426096923828125,-0.009739875793457031,-0.0012227743864059448,0.003962397575378418
1783081152206947800,6.44594775390625,-0.007099151611328125,-0.010559648275375366,0.0015401914715766907
1783081152226625300,6.465625244140625,0.00008106231689453125,0.006073229014873505,-0.005231138318777084
1783081152246471400,6.485471435546875,0.0023927688598632812,-0.007934749126434326,-0.002718113362789154
1783081152266318300,6.505318359375,0.006941795349121094,0.003982529044151306,0.006855186074972153
1783081152286165500,6.52516552734375,-0.011806488037109375,0.0016171708703041077,0.024966638535261154
1783081152306186000,6.54518603515625,-0.018354415893554688,-0.000668644905090332,0.0058477818965911865
1783081152326038000,6.5650380859375,0.012348175048828125,-0.005596086382865906,0.010506801307201385
1783081152345889500,6.5848896484375,0.0003643035888671875,-0.00089988112449646,-0.010848179459571838
1783081152365567200,6.604567138671875,-0.0019626617431640625,-0.0054176002740859985,-0.003517940640449524
1783081152385413600,6.62441357421875,0.005046844482421875,-0.0005264580249786377,0.003568176180124283
1783081152405433300,6.644433349609375,0.00025081634521484375,-0.0029434189200401306,0.0011607371270656586
1783081152425146400,6.664146484375,0.014140129089355469,0.0033801719546318054,0.000028714537620544434
1783081152445132500,6.684132568359375,0.0020999908447265625,-0.01768193393945694,0.014344524592161179
1783081152464983800,6.70398388671875,-0.007232666015625,0.013478197157382965,-0.0025096088647842407
1783081152484834600,6.72383447265625,-0.006995201110839844,-0.0052054449915885925,-0.007433678954839706
1783081152504685000,6.74368505859375,0.0048046112060546875,-0.00012237578630447388,-0.01470886543393135
