time,seconds_elapsed,z,y,x
1783081020747180800,0.130180908203125,0.0007989477599039674,0.0022636852227151394,-0.0037284228019416332
1783081020767019500,0.15001953125,0.0018642114009708166,0.0011984215816482902,-0.002663159044459462
1783081020786669000,0.1696689453125,0.0007989477599039674,0.0022636852227151394,-0.002663159044459462
1783081020806655500,0.189655517578125,0.0007989477599039674,0.0033289489801973104,-0.0037284228019416332
1783081020826368500,0.209368408203125,-0.0002663159102667123,0.0033289489801973104,-0.0037284228019416332
1783081020846216200,0.22921630859375,0.0018642114009708166,0.0022636852227151394,-0.0037284228019416332
1783081020866064400,0.249064453125,0.0007989477599039674,0.0022636852227151394,-0.0037284228019416332
1783081020885912600,0.26891259765625,-0.0002663159102667123,0.0022636852227151394,-0.0037284228019416332
1783081020905899300,0.288899169921875,0.0018642114009708166,0.0022636852227151394,-0.0037284228019416332
1783081020925612500,0.308612548828125,0.0007989477599039674,0.0022636852227151394,-0.0037284228019416332
1783081020945460500,0.32846044921875,-0.0002663159102667123,0.0022636852227151394,-0.0037284228019416332
1783081020965308700,0.34830859375,0.0007989477599039674,0.0011984215816482902,-0.0037284228019416332
1783081020985157000,0.3681572265625,0.0007989477599039674,0.0022636852227151394,-0.002663159044459462
1783081021005144000,0.38814404296875,0.0018642114009708166,0.0022636852227151394,-0.0037284228019416332
1783081021024822500,0.407822509765625,0.0007989477599039674,0.0022636852227151394,-0.002663159044459462
1783081021044669700,0.427669677734375,0.0007989477599039674,0.0022636852227151394,-0.002663159044459462
1783081021064517400,0.447517333984375,0.0007989477599039674,0.0022636852227151394,-0.002663159044459462
1783081021084365300,0.467365234375,0.0007989477599039674,0.0011984215816482902,-0.0037284228019416332
1783081021104386600,0.487386474609375,0.0007989477599039674,0.0022636852227151394,-0.0037284228019416332
1783081021124100000,0.50710009765625,0.0007989477599039674,0.0022636852227151394,-0.0037284228019416332
1783081021143948500,0.526948486328125,0.0007989477599039674,0.0033289489801973104,-0.0037284228019416332
1783081021163797200,0.54679736328125,0.0007989477599039674,0.0033289489801973104,-0.0037284228019416332
1783081021183646000,0.56664599609375,0.0018642114009708166,0.0022636852227151394,-0.002663159044459462
1783081021203633200,0.586633056640625,0.0018642114009708166,0.0022636852227151394,-0.002663159044459462
1783081021223485200,0.606485107421875,-0.0002663159102667123,0.0022636852227151394,-0.002663159044459462
1783081021243163400,0.626163330078125,0.0007989477599039674,0.0022636852227151394,-0.004793686326593161
1783081021263010300,0.64601025390625,0.0018642114009708166,0.0033289489801973104,-0.0037284228019416332
1783081021282823200,0.6658232421875,-0.0002663159102667123,0.0022636852227151394,-0.0037284228019416332
1783081021302877400,0.68587744140625,0.0007989477599039674,0.0022636852227151394,-0.0037284228019416332
1783081021322556400,0.705556396484375,0.0007989477599039674,0.0022636852227151394,-0.002663159044459462
1783081021342369300,0.725369384765625,-0.0002663159102667123,0.0033289489801973104,-0.002663159044459462
1783081021362285300,0.745285400390625,0.0018642114009708166,0.0033289489801973104,-0.002663159044459462
1783081021382134500,0.765134521484375,0.0018642114009708166,0.0022636852227151394,-0.0037284228019416332
1783081021402122000,0.7851220703125,0.0018642114009708166,0.0022636852227151394,-0.0037284228019416332
1783081021421974500,0.804974609375,0.0007989477599039674,0.0033289489801973104,-0.002663159044459462
1783081021441652700,0.82465283203125,-0.0002663159102667123,0.0033289489801973104,-0.002663159044459462
1783081021461672700,0.844672607421875,-0.0002663159102667123,0.0022636852227151394,-0.002663159044459462
1783081021481351200,0.86435107421875,0.0007989477599039674,0.0022636852227151394,-0.0037284228019416332
1783081021501371100,0.88437109375,0.0007989477599039674,0.0011984215816482902,-0.002663159044459462
1783081021521222700,0.90422265625,0.0007989477599039674,0.0022636852227151394,-0.0037284228019416332
1783081021541073700,0.92407373046875,0.0007989477599039674,0.0022636852227151394,-0.002663159044459462
1783081021560959000,0.943958984375,0.0007989477599039674,0.0011984215816482902,-0.0037284228019416332
1783081021580775400,0.963775390625,0.0018642114009708166,0.0022636852227151394,-0.0037284228019416332
1783081021620480500,1.00348046875,0.0007989477599039674,0.0033289489801973104,-0.002663159044459462
1783081021640329500,1.02332958984375,0.0007989477599039674,0.0011984215816482902,-0.0037284228019416332
1783081021660178700,1.0431787109375,0.0007989477599039674,0.0022636852227151394,-0.002663159044459462
1783081021680027600,1.063027587890625,0.0007989477599039674,0.0033289489801973104,-0.002663159044459462
1783081021699876600,1.082876708984375,0.0018642114009708166,0.0022636852227151394,-0.0037284228019416332
1783081021719725600,1.1027255859375,0.0007989477599039674,0.0022636852227151394,-0.002663159044459462
1783081021739574800,1.12257470703125,0.0007989477599039674,0.0022636852227151394,-0.002663159044459462
1783081021759423700,1.142423828125,-0.0002663159102667123,0.0011984215816482902,-0.0037284228019416332
1783081021779272700,1.162272705078125,0.0007989477599039674,0.0022636852227151394,-0.0037284228019416332
1783081021798967800,1.1819677734375,0.0007989477599039674,0.0022636852227151394,-0.002663159044459462
1783081021818970600,1.201970703125,0.0007989477599039674,0.0022636852227151394,-0.002663159044459462
1783081021838819600,1.221819580078125,0.0007989477599039674,0.0022636852227151394,-0.002663159044459462
1783081021858476300,1.241476318359375,0.0018642114009708166,0.0022636852227151394,-0.0037284228019416332
1783081021878325000,1.261324951171875,0.0007989477599039674,0.0033289489801973104,-0.0037284228019416332
1783081021918215200,1.301215087890625,0.0007989477599039674,0.0022636852227151394,-0.0037284228019416332
1783081021937872000,1.320871826171875,0.0007989477599039674,0.0022636852227151394,-0.0037284228019416332
1783081021957720600,1.340720458984375,0.0007989477599039674,0.0022636852227151394,-0.002663159044459462
1783081021977569500,1.360569580078125,-0.0002663159102667123,0.0022636852227151394,-0.002663159044459462
1783081021997418500,1.38041845703125,0.0007989477599039674,0.0022636852227151394,-0.002663159044459462
1783081022017460000,1.4004599609375,0.0018642114009708166,0.0022636852227151394,-0.002663159044459462
1783081022037116700,1.42011669921875,0.0007989477599039674,0.0011984215816482902,-0.0037284228019416332
1783081022056965600,1.439965576171875,0.0007989477599039674,0.0033289489801973104,-0.0037284228019416332
1783081022076814600,1.459814697265625,-0.0002663159102667123,0.0022636852227151394,-0.0037284228019416332
1783081022096663600,1.47966357421875,0.0007989477599039674,0.0022636852227151394,-0.0037284228019416332
1783081022116705000,1.499705078125,-0.0002663159102667123,0.0022636852227151394,-0.002663159044459462
1783081022136554200,1.51955419921875,-0.0002663159102667123,0.0022636852227151394,-0.0037284228019416332
1783081022156211000,1.5392109375,-0.0002663159102667123,0.0033289489801973104,-0.002663159044459462
1783081022176059600,1.5590595703125,0.0007989477599039674,0.0033289489801973104,-0.002663159044459462
1783081022195908600,1.57890869140625,0.0007989477599039674,0.0022636852227151394,-0.0037284228019416332
1783081022215950000,1.5989501953125,0.0007989477599039674,0.0022636852227151394,-0.0037284228019416332
1783081022235606800,1.618606689453125,0.0007989477599039674,0.0022636852227151394,-0.002663159044459462
1783081022255648300,1.638648193359375,-0.0002663159102667123,0.0022636852227151394,-0.002663159044459462
1783081022275497500,1.65849755859375,0.0007989477599039674,0.0022636852227151394,-0.0037284228019416332
1783081022295346700,1.6783466796875,0.0018642114009708166,0.0022636852227151394,-0.0037284228019416332
1783081022315195600,1.698195556640625,-0.0002663159102667123,0.0022636852227151394,-0.002663159044459462
1783081022335044900,1.718044921875,-0.0002663159102667123,0.0022636852227151394,-0.0037284228019416332
1783081022354893800,1.737893798828125,0.0007989477599039674,0.0022636852227151394,-0.0037284228019416332
1783081022374742800,1.75774267578125,0.0007989477599039674,0.0022636852227151394,-0.002663159044459462
1783081022394592000,1.777592041015625,0.0007989477599039674,0.0022636852227151394,-0.002663159044459462
1783081022414441000,1.79744091796875,-0.0002663159102667123,0.0022636852227151394,-0.002663159044459462
1783081022434290000,1.8172900390625,0.0007989477599039674,0.0022636852227151394,-0.0037284228019416332
1783081022454139100,1.83713916015625,0.0018642114009708166,0.0022636852227151394,-0.0037284228019416332
1783081022473988000,1.856988037109375,0.0007989477599039674,0.0011984215816482902,-0.0037284228019416332
1783081022493837000,1.876837158203125,0.0007989477599039674,0.0022636852227151394,-0.002663159044459462
1783081022513686000,1.89668603515625,0.0007989477599039674,0.0022636852227151394,-0.002663159044459462
1783081022533535200,1.91653515625,0.0007989477599039674,0.0022636852227151394,-0.002663159044459462
1783081022553384200,1.93638427734375,0.0007989477599039674,0.0011984215816482902,-0.002663159044459462
1783081022573233200,1.956233154296875,0.0007989477599039674,0.0022636852227151394,-0.002663159044459462
1783081022593082000,1.97608203125,0.0007989477599039674,0.0011984215816482902,-0.0037284228019416332
1783081022612931300,1.995931396484375,0.0007989477599039674,0.0011984215816482902,-0.0037284228019416332
1783081022632780300,2.0157802734375,0.0007989477599039674,0.0022636852227151394,-0.002663159044459462
1783081022652629200,2.035629150390625,0.0007989477599039674,0.0022636852227151394,-0.002663159044459462
1783081022672478200,2.055478271484375,0.0007989477599039674,0.0033289489801973104,-0.0037284228019416332
1783081022692327200,2.0753271484375,0.0007989477599039674,0.0033289489801973104,-0.002663159044459462
1783081022712176400,2.09517626953125,-0.0002663159102667123,0.0033289489801973104,-0.002663159044459462
1783081022732025300,2.115025390625,0.0007989477599039674,0.0022636852227151394,-0.002663159044459462
1783081022751836000,2.1348359375,0.0007989477599039674,0.0011984215816482902,-0.0037284228019416332
1783081022771723300,2.15472314453125,0.0007989477599039674,0.0022636852227151394,-0.002663159044459462
1783081022791572200,2.174572265625,0.0007989477599039674,0.0022636852227151394,-0.002663159044459462
1783081022811421400,2.19442138671875,0.0007989477599039674,0.0033289489801973104,-0.0037284228019416332
1783081022831270400,2.2142705078125,-0.0002663159102667123,0.0022636852227151394,-0.0037284228019416332
1783081022851119400,2.234119384765625,0.0007989477599039674,0.0022636852227151394,-0.0037284228019416332
1783081022870968300,2.25396826171875,0.0018642114009708166,0.0033289489801973104,-0.0037284228019416332
1783081022890817500,2.273817626953125,0.0007989477599039674,0.0022636852227151394,-0.002663159044459462
1783081022910666500,2.29366650390625,0.0007989477599039674,0.0022636852227151394,-0.0037284228019416332
1783081022930515500,2.313515380859375,0.0007989477599039674,0.0022636852227151394,-0.002663159044459462
1783081022950364400,2.333364501953125,0.0007989477599039674,0.0022636852227151394,-0.002663159044459462
1783081022970213400,2.35321337890625,-0.0002663159102667123,0.0011984215816482902,-0.002663159044459462
1783081022990062600,2.3730625,0.0018642114009708166,0.0022636852227151394,-0.0037284228019416332
1783081023009911600,2.39291162109375,0.0007989477599039674,0.0022636852227151394,-0.002663159044459462
1783081023029760500,2.412760498046875,0.0007989477599039674,0.0022636852227151394,-0.0037284228019416332
1783081023049609500,2.432609375,0.0007989477599039674,0.0011984215816482902,-0.0037284228019416332
1783081023069458400,2.45245849609375,0.0007989477599039674,0.0011984215816482902,-0.0037284228019416332
1783081023089307600,2.4723076171875,0.0007989477599039674,0.0022636852227151394,-0.0037284228019416332
1783081023108964000,2.491964111328125,0.0018642114009708166,0.0022636852227151394,-0.002663159044459462
1783081023128812800,2.511812744140625,0.0018642114009708166,0.0022636852227151394,-0.0037284228019416332
1783081023148661800,2.531661865234375,0.0007989477599039674,0.0022636852227151394,-0.0037284228019416332
1783081023168703000,2.551702880859375,-0.0002663159102667123,0.0022636852227151394,-0.0037284228019416332
1783081023188552200,2.57155224609375,0.0007989477599039674,0.0022636852227151394,-0.0037284228019416332
1783081023208209000,2.591208984375,0.0007989477599039674,0.0022636852227151394,-0.0037284228019416332
1783081023228057600,2.6110576171875,0.0007989477599039674,0.0022636852227151394,-0.0037284228019416332
1783081023247906600,2.630906494140625,0.0007989477599039674,0.0022636852227151394,-0.002663159044459462
1783081023267947800,2.65094775390625,0.0007989477599039674,0.0022636852227151394,-0.0037284228019416332
1783081023287604500,2.6706044921875,-0.0002663159102667123,0.0022636852227151394,-0.0037284228019416332
1783081023307453400,2.690453369140625,-0.0002663159102667123,0.0022636852227151394,-0.004793686326593161
1783081023327495000,2.710494873046875,-0.0002663159102667123,0.0022636852227151394,-0.0037284228019416332
1783081023347151600,2.730151611328125,0.0007989477599039674,0.0022636852227151394,-0.0037284228019416332
1783081023367192800,2.75019287109375,0.0007989477599039674,0.0022636852227151394,-0.0037284228019416332
1783081023386849500,2.769849609375,-0.0002663159102667123,0.0033289489801973104,-0.002663159044459462
1783081023406698500,2.789698486328125,0.0007989477599039674,0.0022636852227151394,-0.002663159044459462
1783081023426547500,2.80954736328125,0.0007989477599039674,0.0033289489801973104,-0.0037284228019416332
1783081023446396400,2.829396484375,0.0007989477599039674,0.0033289489801973104,-0.0037284228019416332
1783081023466438000,2.84943798828125,-0.0002663159102667123,0.0022636852227151394,-0.002663159044459462
1783081023486094300,2.86909423828125,0.0007989477599039674,0.0033289489801973104,-0.0037284228019416332
1783081023505943300,2.888943359375,0.0018642114009708166,0.0022636852227151394,-0.002663159044459462
1783081023525792300,2.908792236328125,0.0018642114009708166,0.0022636852227151394,-0.0037284228019416332
1783081023545641200,2.92864111328125,0.0018642114009708166,0.0022636852227151394,-0.002663159044459462
1783081023565683000,2.948682861328125,0.0007989477599039674,0.0033289489801973104,-0.002663159044459462
1783081023585339400,2.96833935546875,0.0007989477599039674,0.0033289489801973104,-0.0037284228019416332
1783081023605380900,2.988380859375,-0.0002663159102667123,0.0022636852227151394,-0.002663159044459462
1783081023625037600,3.00803759765625,-0.0002663159102667123,0.0022636852227151394,-0.002663159044459462
1783081023645079000,3.0280791015625,-0.0002663159102667123,0.0011984215816482902,-0.002663159044459462
1783081023664928300,3.04792822265625,0.0018642114009708166,0.0022636852227151394,-0.0037284228019416332
1783081023684585000,3.0675849609375,0.0018642114009708166,0.0022636852227151394,-0.002663159044459462
1783081023704434000,3.087433837890625,0.0007989477599039674,0.0022636852227151394,-0.0037284228019416332
1783081023724282600,3.10728271484375,-0.0002663159102667123,0.0022636852227151394,-0.0037284228019416332
1783081023744324000,3.127323974609375,0.0007989477599039674,0.0011984215816482902,-0.002663159044459462
1783081023764173300,3.14717333984375,0.0018642114009708166,0.0022636852227151394,-0.002663159044459462
1783081023783830000,3.166830078125,-0.0002663159102667123,0.0022636852227151394,-0.0037284228019416332
1783081023803679000,3.186678955078125,-0.0002663159102667123,0.0022636852227151394,-0.0037284228019416332
1783081023823566300,3.20656640625,0.0007989477599039674,0.0022636852227151394,-0.002663159044459462
1783081023843415000,3.2264150390625,0.0007989477599039674,0.0033289489801973104,-0.002663159044459462
1783081023863418400,3.24641845703125,0.0007989477599039674,0.0022636852227151394,-0.002663159044459462
1783081023883267600,3.266267578125,0.0007989477599039674,0.0011984215816482902,-0.0037284228019416332
1783081023902962400,3.28596240234375,0.0007989477599039674,0.0022636852227151394,-0.0037284228019416332
1783081023922773000,3.30577294921875,0.0007989477599039674,0.0022636852227151394,-0.0037284228019416332
1783081023942814500,3.325814453125,0.0007989477599039674,0.0022636852227151394,-0.0037284228019416332
1783081023962471200,3.34547119140625,-0.0002663159102667123,0.0011984215816482902,-0.0037284228019416332
1783081023982319900,3.36531982421875,0.0007989477599039674,0.0022636852227151394,-0.0037284228019416332
1783081024002168800,3.3851689453125,0.0007989477599039674,0.0033289489801973104,-0.0037284228019416332
1783081024022210300,3.405210205078125,0.0007989477599039674,0.0022636852227151394,-0.0037284228019416332
1783081024042059500,3.4250595703125,0.0007989477599039674,0.0022636852227151394,-0.002663159044459462
1783081024061716200,3.44471630859375,0.0007989477599039674,0.0011984215816482902,-0.002663159044459462
1783081024081565200,3.464565185546875,0.0007989477599039674,0.0022636852227151394,-0.0037284228019416332
1783081024101414000,3.484413818359375,0.0007989477599039674,0.0033289489801973104,-0.0037284228019416332
1783081024121262800,3.504262939453125,0.0007989477599039674,0.0022636852227151394,-0.0037284228019416332
1783081024141188900,3.52418896484375,0.0007989477599039674,0.0011984215816482902,-0.002663159044459462
1783081024161153500,3.544153564453125,0.0007989477599039674,0.0022636852227151394,-0.002663159044459462
1783081024180810000,3.56381005859375,-0.0002663159102667123,0.0022636852227151394,-0.002663159044459462
1783081024200659000,3.583658935546875,0.0007989477599039674,0.0011984215816482902,-0.0037284228019416332
1783081024220508000,3.6035078125,0.0007989477599039674,0.0022636852227151394,-0.0015978955198079348
1783081024240549600,3.623549560546875,0.0007989477599039674,0.0011984215816482902,-0.0037284228019416332
1783081024260206000,3.6432060546875,-0.0002663159102667123,0.0011984215816482902,-0.0037284228019416332
1783081024280055000,3.663054931640625,-0.0002663159102667123,0.0022636852227151394,-0.0037284228019416332
1783081024300096500,3.683096435546875,0.0007989477599039674,0.0022636852227151394,-0.002663159044459462
1783081024319753200,3.702753173828125,0.0007989477599039674,0.0022636852227151394,-0.002663159044459462
1783081024339794700,3.722794677734375,0.0007989477599039674,0.0022636852227151394,-0.002663159044459462
1783081024359451400,3.742451416015625,0.0007989477599039674,0.0022636852227151394,-0.002663159044459462
1783081024379300400,3.76230029296875,0.0018642114009708166,0.0022636852227151394,-0.0037284228019416332
1783081024399149000,3.782149169921875,0.0018642114009708166,0.0022636852227151394,-0.0037284228019416332
1783081024419190800,3.802190673828125,0.0007989477599039674,0.0022636852227151394,-0.0037284228019416332
1783081024439040000,3.8220400390625,-0.0002663159102667123,0.0022636852227151394,-0.002663159044459462
1783081024458696400,3.841696533203125,0.0007989477599039674,0.0022636852227151394,-0.002663159044459462
1783081024478545400,3.86154541015625,0.0007989477599039674,0.0022636852227151394,-0.0037284228019416332
1783081024498394400,3.881394287109375,0.0007989477599039674,0.0022636852227151394,-0.0037284228019416332
1783081024518435800,3.901435791015625,0.0007989477599039674,0.0033289489801973104,-0.002663159044459462
1783081024538270700,3.921270751953125,0.0007989477599039674,0.0022636852227151394,-0.002663159044459462
1783081024558169600,3.941169677734375,-0.0002663159102667123,0.0011984215816482902,-0.0037284228019416332
1783081024577974300,3.960974365234375,0.0007989477599039674,0.0022636852227151394,-0.002663159044459462
1783081024597651200,3.980651123046875,0.0007989477599039674,0.0033289489801973104,-0.0037284228019416332
1783081024617497300,4.000497314453125,0.0007989477599039674,0.0033289489801973104,-0.002663159044459462
1783081024637343700,4.02034375,0.0007989477599039674,0.0022636852227151394,-0.002663159044459462
1783081024657364000,4.040364013671875,0.0007989477599039674,0.0022636852227151394,-0.002663159044459462
1783081024677042200,4.060042236328125,0.0018642114009708166,0.0022636852227151394,-0.0037284228019416332
1783081024696785700,4.07978564453125,0.0007989477599039674,0.0011984215816482902,-0.0037284228019416332
1783081024716734000,4.09973388671875,0.0007989477599039674,0.0022636852227151394,-0.002663159044459462
1783081024736582400,4.11958251953125,0.0007989477599039674,0.0011984215816482902,-0.002663159044459462
1783081024756604000,4.13960400390625,0.0007989477599039674,0.0011984215816482902,-0.0037284228019416332
1783081024776283100,4.159283203125,-0.0002663159102667123,0.0022636852227151394,-0.0037284228019416332
1783081024796131000,4.179131103515625,-0.0002663159102667123,0.0022636852227151394,-0.002663159044459462
1783081024815979000,4.19897900390625,0.0007989477599039674,0.0022636852227151394,-0.002663159044459462
1783081024835827500,4.218827392578125,-0.0002663159102667123,0.0022636852227151394,-0.0037284228019416332
1783081024855849000,4.238848876953125,-0.0002663159102667123,0.0022636852227151394,-0.002663159044459462
1783081024875562800,4.258562744140625,0.0007989477599039674,0.0022636852227151394,-0.002663159044459462
1783081024895411500,4.278411376953125,0.0007989477599039674,0.0033289489801973104,-0.002663159044459462
1783081024915260200,4.29826025390625,0.0007989477599039674,0.0033289489801973104,-0.0037284228019416332
1783081024935074300,4.31807421875,-0.0002663159102667123,0.0022636852227151394,-0.0037284228019416332
1783081024955095600,4.338095458984375,-0.0002663159102667123,0.0022636852227151394,-0.0037284228019416332
1783081024974774500,4.3577744140625,0.0007989477599039674,0.0022636852227151394,-0.0037284228019416332
1783081024994795300,4.377795166015625,0.0007989477599039674,0.0022636852227151394,-0.002663159044459462
1783081025014473700,4.3974736328125,0.0007989477599039674,0.0011984215816482902,-0.0037284228019416332
1783081025034321200,4.417321044921875,-0.0002663159102667123,0.0011984215816482902,-0.002663159044459462
1783081025054342000,4.437341796875,-0.0002663159102667123,0.0022636852227151394,-0.0037284228019416332
1783081025074020600,4.4570205078125,0.0007989477599039674,0.0033289489801973104,-0.0037284228019416332
1783081025093868000,4.476867919921875,0.0007989477599039674,0.0033289489801973104,-0.002663159044459462
1783081025113715700,4.4967158203125,0.0007989477599039674,0.0033289489801973104,-0.002663159044459462
1783081025133737000,4.516737060546875,0.0007989477599039674,0.0022636852227151394,-0.0037284228019416332
1783081025153415700,4.536415771484375,0.0007989477599039674,0.0011984215816482902,-0.0037284228019416332
1783081025173263400,4.556263427734375,-0.0002663159102667123,0.0022636852227151394,-0.0037284228019416332
1783081025193111300,4.576111328125,0.0007989477599039674,0.0022636852227151394,-0.002663159044459462
1783081025212959500,4.59595947265625,0.0007989477599039674,0.0022636852227151394,-0.0037284228019416332
1783081025232807700,4.6158076171875,0.0007989477599039674,0.0022636852227151394,-0.0037284228019416332
1783081025252656000,4.63565625,-0.0002663159102667123,0.0011984215816482902,-0.002663159044459462
1783081025272677600,4.655677734375,0.0007989477599039674,0.0022636852227151394,-0.0015978955198079348
1783081025292357000,4.675357177734375,0.0007989477599039674,0.0033289489801973104,-0.0037284228019416332
1783081025312205000,4.695205078125,-0.0002663159102667123,0.0022636852227151394,-0.004793686326593161
1783081025332053200,4.71505322265625,0.0007989477599039674,0.0011984215816482902,-0.0037284228019416332
1783081025351901400,4.7349013671875,0.0007989477599039674,0.0022636852227151394,-0.002663159044459462
1783081025371750100,4.754750244140625,-0.0002663159102667123,0.0022636852227151394,-0.0037284228019416332
1783081025391598600,4.7745986328125,-0.0002663159102667123,0.0022636852227151394,-0.0037284228019416332
1783081025411620400,4.794620361328125,0.0007989477599039674,0.0022636852227151394,-0.0037284228019416332
1783081025431197400,4.814197509765625,0.0018642114009708166,0.0022636852227151394,-0.0037284228019416332
1783081025451138600,4.834138671875,0.0007989477599039674,0.0033289489801973104,-0.0037284228019416332
1783081025470988500,4.853988525390625,-0.0002663159102667123,0.0033289489801973104,-0.0037284228019416332
1783081025490838500,4.873838623046875,0.0007989477599039674,0.0011984215816482902,-0.0037284228019416332
1783081025510687700,4.893687744140625,-0.0002663159102667123,0.0022636852227151394,-0.0037284228019416332
1783081025530710500,4.91371044921875,0.0007989477599039674,0.0022636852227151394,-0.0037284228019416332
1783081025550564000,4.933564208984375,-0.0002663159102667123,0.0033289489801973104,-0.0037284228019416332
1783081025570243300,4.953243408203125,0.0007989477599039674,0.0022636852227151394,-0.002663159044459462
1783081025590091300,4.97309130859375,0.0007989477599039674,0.0022636852227151394,-0.002663159044459462
1783081025609939500,4.992939453125,0.0007989477599039674,0.0022636852227151394,-0.0037284228019416332
1783081025629960700,5.012960693359375,-0.0002663159102667123,0.0022636852227151394,-0.0037284228019416332
1783081025649640000,5.032639892578125,-0.0002663159102667123,0.0022636852227151394,-0.0037284228019416332
1783081025669487600,5.052487548828125,0.0007989477599039674,0.0022636852227151394,-0.0037284228019416332
1783081025689335800,5.072335693359375,0.0007989477599039674,0.0022636852227151394,-0.002663159044459462
1783081025709184000,5.09218408203125,0.0007989477599039674,0.0022636852227151394,-0.002663159044459462
1783081025729205200,5.112205322265625,0.0007989477599039674,0.0033289489801973104,-0.0037284228019416332
1783081025768923400,5.15192333984375,0.0007989477599039674,0.0011984215816482902,-0.002663159044459462
1783081025788772600,5.171772705078125,0.0007989477599039674,0.0022636852227151394,-0.0037284228019416332
1783081025808621800,5.191621826171875,-0.0002663159102667123,0.0011984215816482902,-0.0037284228019416332
1783081025828471000,5.211470947265625,0.0007989477599039674,0.0022636852227151394,-0.0037284228019416332
1783081025848127700,5.231127685546875,0.0018642114009708166,0.0022636852227151394,-0.002663159044459462
1783081025868169000,5.2511689453125,0.0007989477599039674,0.0022636852227151394,-0.0015978955198079348
1783081025887825400,5.270825439453125,0.0007989477599039674,0.0022636852227151394,-0.002663159044459462
1783081025907867000,5.290866943359375,0.0007989477599039674,0.0022636852227151394,-0.004793686326593161
1783081025927562000,5.31056201171875,-0.0002663159102667123,0.0022636852227151394,-0.0037284228019416332
1783081025947411000,5.330410888671875,0.0007989477599039674,0.0022636852227151394,-0.0037284228019416332
1783081025967413800,5.350413818359375,0.0007989477599039674,0.0022636852227151394,-0.0037284228019416332
1783081025987263000,5.370262939453125,0.0007989477599039674,0.0022636852227151394,-0.0037284228019416332
1783081026006958000,5.3899580078125,0.0007989477599039674,0.0011984215816482902,-0.0037284228019416332
1783081026026768400,5.409768310546875,0.0007989477599039674,0.0022636852227151394,-0.0037284228019416332
1783081026046617300,5.429617431640625,-0.0002663159102667123,0.0022636852227151394,-0.0037284228019416332
1783081026066658800,5.449658935546875,-0.0002663159102667123,0.0033289489801973104,-0.002663159044459462
1783081026086315500,5.4693154296875,0.0007989477599039674,0.0022636852227151394,-0.002663159044459462
1783081026106164200,5.489164306640625,0.0007989477599039674,0.0022636852227151394,-0.0037284228019416332
1783081026126205700,5.509205810546875,0.0007989477599039674,0.0022636852227151394,-0.0037284228019416332
1783081026146055000,5.529054931640625,0.0007989477599039674,0.0022636852227151394,-0.002663159044459462
1783081026165904100,5.548904052734375,-0.0002663159102667123,0.0022636852227151394,-0.002663159044459462
1783081026185753000,5.568753173828125,-0.001331579522229731,0.0022636852227151394,-0.002663159044459462
1783081026205409800,5.588409912109375,0.0007989477599039674,0.0022636852227151394,-0.0037284228019416332
1783081026225258500,5.608258544921875,0.0007989477599039674,0.0022636852227151394,-0.0037284228019416332
1783081026245107500,5.628107421875,-0.0002663159102667123,0.0011984215816482902,-0.002663159044459462
1783081026265149000,5.64814892578125,-0.0002663159102667123,0.0011984215816482902,-0.0037284228019416332
1783081026284805600,5.6678056640625,0.0007989477599039674,0.0011984215816482902,-0.002663159044459462
1783081026304654300,5.687654296875,0.0007989477599039674,0.0022636852227151394,-0.0037284228019416332
1783081026324503300,5.70750341796875,0.0007989477599039674,0.0011984215816482902,-0.0037284228019416332
1783081026344544800,5.727544677734375,0.0007989477599039674,0.0011984215816482902,-0.0037284228019416332
1783081026364394000,5.74739404296875,0.0007989477599039674,0.0022636852227151394,-0.002663159044459462
1783081026384050700,5.76705078125,0.0007989477599039674,0.0033289489801973104,-0.0037284228019416332
1783081026404092200,5.787092041015625,0.0007989477599039674,0.0022636852227151394,-0.002663159044459462
1783081026423748600,5.80674853515625,0.0007989477599039674,0.0022636852227151394,-0.0037284228019416332
1783081026443790000,5.8267900390625,0.0007989477599039674,0.0011984215816482902,-0.002663159044459462
1783081026463446800,5.84644677734375,-0.0002663159102667123,0.0022636852227151394,-0.0037284228019416332
1783081026483295500,5.86629541015625,0.0007989477599039674,0.0033289489801973104,-0.0037284228019416332
1783081026503144400,5.88614453125,0.0007989477599039674,0.0033289489801973104,-0.0037284228019416332
1783081026522993400,5.905993408203125,0.0018642114009708166,0.0022636852227151394,-0.002663159044459462
1783081026543035000,5.926034912109375,0.0007989477599039674,0.0011984215816482902,-0.004793686326593161
1783081026562691600,5.945691650390625,0.0007989477599039674,0.0022636852227151394,-0.004793686326593161
1783081026582540500,5.96554052734375,0.0007989477599039674,0.0022636852227151394,-0.002663159044459462
1783081026602389500,5.985389404296875,0.0007989477599039674,0.0033289489801973104,-0.0037284228019416332
1783081026622431000,6.005430908203125,0.0007989477599039674,0.0022636852227151394,-0.0037284228019416332
1783081026642280200,6.0252802734375,0.0007989477599039674,0.0022636852227151394,-0.002663159044459462
1783081026661936600,6.0449365234375,0.0007989477599039674,0.0033289489801973104,-0.0037284228019416332
1783081026681978000,6.06497802734375,0.0007989477599039674,0.0033289489801973104,-0.0037284228019416332
1783081026701634800,6.084634765625,-0.0002663159102667123,0.0033289489801973104,-0.0037284228019416332
1783081026721676300,6.10467626953125,0.0018642114009708166,0.0022636852227151394,-0.002663159044459462
1783081026741525500,6.124525390625,0.0007989477599039674,0.0022636852227151394,-0.0015978955198079348
1783081026761182000,6.144181884765625,-0.0002663159102667123,0.0022636852227151394,-0.002663159044459462
1783081026781031000,6.164031005859375,-0.0002663159102667123,0.0022636852227151394,-0.004793686326593161
1783081026800879600,6.183879638671875,0.0007989477599039674,0.0033289489801973104,-0.0037284228019416332
1783081026820921000,6.203921142578125,0.0007989477599039674,0.0022636852227151394,-0.002663159044459462
1783081026840770300,6.223770263671875,0.0007989477599039674,0.0022636852227151394,-0.002663159044459462
1783081026860427000,6.243427001953125,0.0018642114009708166,0.0011984215816482902,-0.0037284228019416332
1783081026880275700,6.263275634765625,0.0007989477599039674,0.0022636852227151394,-0.0037284228019416332
1783081026900124700,6.283124755859375,-0.0002663159102667123,0.0022636852227151394,-0.0037284228019416332
1783081026920166100,6.303166259765625,0.0007989477599039674,0.0022636852227151394,-0.002663159044459462
1783081026940015400,6.323015380859375,0.0007989477599039674,0.0022636852227151394,-0.0037284228019416332
1783081026959864600,6.342864501953125,0.0007989477599039674,0.0011984215816482902,-0.0037284228019416332
1783081026979559700,6.3625595703125,0.0007989477599039674,0.0022636852227151394,-0.0037284228019416332
1783081026999408400,6.382408447265625,-0.0002663159102667123,0.0033289489801973104,-0.0037284228019416332
1783081027019411500,6.402411376953125,0.0007989477599039674,0.0022636852227151394,-0.002663159044459462
1783081027039260700,6.4222607421875,0.0007989477599039674,0.0011984215816482902,-0.002663159044459462
1783081027058917400,6.44191748046875,0.0007989477599039674,0.0022636852227151394,-0.0037284228019416332
1783081027078766000,6.46176611328125,-0.0002663159102667123,0.0022636852227151394,-0.0037284228019416332
1783081027098615000,6.481614990234375,-0.0002663159102667123,0.0022636852227151394,-0.0037284228019416332
1783081027118656500,6.501656494140625,0.0007989477599039674,0.0022636852227151394,-0.0037284228019416332
1783081027138313000,6.52131298828125,0.0007989477599039674,0.0033289489801973104,-0.002663159044459462
1783081027158162000,6.541161865234375,0.0018642114009708166,0.0022636852227151394,-0.0037284228019416332
1783081027178011000,6.561010986328125,0.0007989477599039674,0.0033289489801973104,-0.0037284228019416332
1783081027197859800,6.58085986328125,0.0007989477599039674,0.0011984215816482902,-0.0037284228019416332
1783081027217901300,6.6009013671875,0.0007989477599039674,0.0011984215816482902,-0.0037284228019416332
1783081027237558000,6.62055810546875,-0.0002663159102667123,0.0011984215816482902,-0.0037284228019416332
1783081027257406700,6.64040673828125,0.0007989477599039674,0.0022636852227151394,-0.0037284228019416332
1783081027277255700,6.660255615234375,0.0007989477599039674,0.0022636852227151394,-0.0037284228019416332
1783081027297104600,6.680104736328125,0.0007989477599039674,0.0022636852227151394,-0.0037284228019416332
1783081027317146400,6.700146484375,-0.0002663159102667123,0.0033289489801973104,-0.002663159044459462
1783081027336802800,6.719802734375,0.0007989477599039674,0.0033289489801973104,-0.0037284228019416332
1783081027356651800,6.73965185546875,0.0007989477599039674,0.0033289489801973104,-0.002663159044459462
1783081027376500700,6.759500732421875,0.0007989477599039674,0.0022636852227151394,-0.0037284228019416332
1783081027396349700,6.779349609375,0.0007989477599039674,0.0022636852227151394,-0.002663159044459462
1783081027416352800,6.799352783203125,0.0007989477599039674,0.0011984215816482902,-0.0037284228019416332
1783081027436048000,6.8190478515625,0.0007989477599039674,0.0022636852227151394,-0.0037284228019416332
1783081027456089300,6.83908935546875,0.0007989477599039674,0.0022636852227151394,-0.0037284228019416332
1783081027475746000,6.85874609375,0.0007989477599039674,0.0022636852227151394,-0.002663159044459462
1783081027495595000,6.878594970703125,0.0007989477599039674,0.0022636852227151394,-0.002663159044459462
1783081027515636500,6.898636474609375,0.0007989477599039674,0.0033289489801973104,-0.0037284228019416332
1783081027535485700,6.918485595703125,-0.0002663159102667123,0.0022636852227151394,-0.002663159044459462
1783081027555335000,6.9383349609375,-0.0002663159102667123,0.0011984215816482902,-0.0037284228019416332
1783081027575184000,6.958183837890625,0.0018642114009708166,0.0022636852227151394,-0.0037284228019416332
1783081027595033000,6.978033203125,0.0007989477599039674,0.0022636852227151394,-0.0037284228019416332
1783081027614882000,6.997882080078125,-0.0002663159102667123,0.0033289489801973104,-0.002663159044459462
1783081027634731300,7.017731201171875,0.0007989477599039674,0.0022636852227151394,-0.002663159044459462
1783081027654580200,7.037580322265625,0.0007989477599039674,0.0033289489801973104,-0.002663159044459462
1783081027674429200,7.05742919921875,0.0007989477599039674,0.0033289489801973104,-0.002663159044459462
1783081027694278100,7.077278076171875,0.0007989477599039674,0.0022636852227151394,-0.002663159044459462
1783081027714127400,7.09712744140625,0.0007989477599039674,0.0011984215816482902,-0.0037284228019416332
1783081027733976300,7.116976318359375,0.0007989477599039674,0.0022636852227151394,-0.002663159044459462
1783081027753825300,7.1368251953125,0.0007989477599039674,0.0033289489801973104,-0.002663159044459462
1783081027773674500,7.156674560546875,0.0007989477599039674,0.0022636852227151394,-0.002663159044459462
1783081027793523500,7.1765234375,0.0007989477599039674,0.0022636852227151394,-0.002663159044459462
1783081027813372400,7.196372314453125,0.0007989477599039674,0.0022636852227151394,-0.004793686326593161
1783081027833221400,7.216221435546875,0.0018642114009708166,0.0022636852227151394,-0.0037284228019416332
1783081027853070300,7.2360703125,0.0007989477599039674,0.0022636852227151394,-0.002663159044459462
1783081027872919600,7.25591943359375,0.0007989477599039674,0.0022636852227151394,-0.0037284228019416332
1783081027892768500,7.2757685546875,0.0007989477599039674,0.0022636852227151394,-0.0037284228019416332
1783081027912617500,7.295617431640625,0.0007989477599039674,0.0022636852227151394,-0.0037284228019416332
1783081027932466400,7.315466552734375,0.0007989477599039674,0.0022636852227151394,-0.002663159044459462
1783081027952315600,7.335315673828125,-0.0002663159102667123,0.0022636852227151394,-0.0037284228019416332
1783081027972164600,7.35516455078125,-0.0002663159102667123,0.0011984215816482902,-0.0037284228019416332
1783081027992013600,7.375013671875,0.0007989477599039674,0.01717737689614296,0.0035952648613601923
1783081028011862500,7.394862548828125,-0.0002663159102667123,0.016112113371491432,0.004660528618842363
1783081028031711500,7.41471142578125,0.0007989477599039674,-0.008255792781710625,-0.006924213841557503
1783081028051560400,7.434560546875,0.0018642114009708166,-0.013582111336290836,-0.01225053146481514
