time,seconds_elapsed,z,y,x
1783080487930545700,0.101545654296875,1.0008888244628906,-0.48123699426651,-0.30527839064598083
1783080487950164500,0.12116455078125,0.530670166015625,-0.42585182189941406,-0.4175688624382019
1783080487970153500,0.141153564453125,0.3651742935180664,-0.3637838661670685,-0.47975781559944153
1783080487989851400,0.160851318359375,0.31795787811279297,-0.47649383544921875,-0.43808454275131226
1783080488009703000,0.180702880859375,0.48445987701416016,-0.7655434608459473,-0.1802363097667694
1783080488029554200,0.20055419921875,0.5619516372680664,-1.0458910465240479,0.02244465798139572
1783080488049420800,0.2204208984375,0.3632383346557617,-1.0923863649368286,0.08520892262458801
1783080488069407700,0.24040771484375,-0.09332561492919922,-0.9489734768867493,0.09135755896568298
1783080488089121000,0.26012109375,-0.8610620498657227,-0.6896001100540161,0.07586462050676346
1783080488109103900,0.280103759765625,-1.5382871627807617,-0.34677258133888245,-0.016407310962677002
1783080488128764200,0.29976416015625,-2.0072951316833496,-0.1703372299671173,-0.03882274031639099
1783080488148635600,0.3196357421875,-2.07955265045166,-0.03561824560165405,-0.09756970405578613
1783080488168657000,0.339656982421875,-1.8316383361816406,0.08173263072967529,-0.14604851603507996
1783080488188320800,0.35932080078125,-1.2742395401000977,0.11084213852882385,-0.09880156815052032
1783080488208210200,0.379210205078125,-0.9149370193481445,0.0819183886051178,-0.08602003008127213
1783080488228077000,0.3990771484375,-0.811335563659668,0.10593295097351074,-0.15198612213134766
1783080488267988200,0.43898828125,-0.007233619689941406,0.24679897725582123,-0.5085284113883972
1783080488287769600,0.45876953125,-0.023420333862304688,0.30021828413009644,-0.4067208170890808
1783080488307620400,0.478620361328125,0.2918996810913086,0.37752625346183777,-0.25577598810195923
1783080488327470800,0.498470947265625,0.7824478149414062,0.3304595351219177,-0.10642555356025696
1783080488347321600,0.518321533203125,1.2114572525024414,0.12164312601089478,0.12174287438392639
1783080488367172400,0.53817236328125,1.392582893371582,-0.08640764653682709,0.2677144408226013
1783080488387022800,0.55802294921875,1.0587120056152344,-0.2014511376619339,0.020248472690582275
1783080488406873300,0.577873291015625,0.6988658905029297,-0.013100892305374146,-0.473039448261261
1783080488426724000,0.59772412109375,0.9497594833374023,0.02448323369026184,-0.41474753618240356
1783080488446574600,0.61757470703125,1.2401008605957031,0.12078088521957397,-0.18598580360412598
1783080488466425300,0.63742529296875,1.2669849395751953,-0.0452599823474884,0.6154955625534058
1783080488486275800,0.65727587890625,1.243758201599121,-0.4141656458377838,1.1173384189605713
1783080488506126600,0.677126708984375,0.9202537536621094,-0.6705254316329956,0.8685157895088196
1783080488525977000,0.69697705078125,0.5854778289794922,-0.7749155163764954,-0.15617254376411438
1783080488545827800,0.716827880859375,0.23218536376953125,-0.6020990610122681,-0.773192286491394
1783080488565678300,0.73667822265625,-0.09627532958984375,-0.5529712438583374,-0.7158461809158325
1783080488585529000,0.756529052734375,-0.2559089660644531,-0.46586015820503235,-0.2093462347984314
1783080488605379600,0.776379638671875,-0.43940162658691406,-0.4265374541282654,0.6870481371879578
1783080488625230000,0.79622998046875,-0.5748796463012695,-0.337438702583313,1.0870660543441772
1783080488645080800,0.816080810546875,-0.8573427200317383,-0.10803204774856567,0.8786060810089111
1783080488664931300,0.835931396484375,-1.1453237533569336,0.042186617851257324,0.24783280491828918
1783080488684782000,0.855781982421875,-1.2701435089111328,0.18907201290130615,-0.3943958282470703
1783080488704632600,0.875632568359375,-1.3508291244506836,0.3069448173046112,-0.592481255531311
1783080488724483300,0.8954833984375,-1.3281965255737305,0.41036972403526306,-0.48063838481903076
1783080488744333800,0.915333740234375,-1.0100421905517578,0.5023013353347778,-0.3065573573112488
1783080488764184600,0.9351845703125,-0.8577947616577148,0.5605379939079285,-0.0923314318060875
1783080488784035000,0.95503515625,-0.6326923370361328,0.5565718412399292,0.06210725009441376
1783080488803885600,0.974885498046875,-0.30636024475097656,0.5430752038955688,-0.15791891515254974
1783080488823736300,0.994736328125,-0.10268115997314453,0.4778696894645691,-0.37774184346199036
1783080488843394600,1.01439453125,-0.2185688018798828,0.414233535528183,-0.2795809805393219
1783080488883287800,1.054287841796875,-0.732457160949707,0.5723916292190552,-0.08992466330528259
1783080488902946000,1.073946044921875,-0.6323051452636719,0.6825575828552246,-0.16048884391784668
1783080488922796500,1.093796630859375,-0.3375740051269531,0.6971525549888611,-0.13400205969810486
1783080488942685200,1.113685302734375,0.4911794662475586,0.537001371383667,0.04771232604980469
1783080488962689800,1.133689697265625,1.2750720977783203,0.3151702284812927,0.3606984615325928
1783080488982386700,1.15338671875,1.6021785736083984,-0.03521698713302612,0.7238603234291077
1783080489002237000,1.17323681640625,1.1454105377197266,-0.1558818817138672,0.7170637845993042
1783080489022087400,1.19308740234375,0.7659063339233398,-0.06360501050949097,0.28382474184036255
1783080489041938200,1.212938232421875,0.5956611633300781,0.26095765829086304,-0.0704052671790123
1783080489061942800,1.23294287109375,0.17570877075195312,0.29049384593963623,0.06618597358465195
1783080489081793500,1.25279345703125,0.6008472442626953,0.12602287530899048,0.16112670302391052
1783080489101490200,1.272490234375,0.7619848251342773,-0.14348149299621582,0.0847046971321106
1783080489121340700,1.292340576171875,0.7254419326782227,-0.5137118101119995,0.03229339420795441
1783080489141191200,1.312191162109375,0.4323596954345703,-0.5571277141571045,-0.15196487307548523
1783080489161195800,1.33219580078125,0.5319738388061523,-0.5179487466812134,-0.347496896982193
1783080489180854000,1.35185400390625,0.7017126083374023,-0.7819855213165283,-0.36863455176353455
1783080489200704500,1.37170458984375,0.8048152923583984,-1.1430565118789673,0.03513115644454956
1783080489220747500,1.39174755859375,0.7178010940551758,-1.4866124391555786,0.4466155767440796
1783080489240598300,1.411598388671875,0.39655494689941406,-1.3589117527008057,0.5561491250991821
1783080489260449000,1.431448974609375,0.04743194580078125,-0.9397540092468262,0.31295323371887207
1783080489280299800,1.4512998046875,-0.7275972366333008,-0.4105873107910156,0.09787004441022873
1783080489299958000,1.4709580078125,-1.7246265411376953,-0.1890575885772705,0.04413124546408653
1783080489319808500,1.49080859375,-2.083592414855957,0.02986842393875122,-0.03912591189146042
1783080489339658800,1.51065869140625,-1.9160728454589844,0.2410845160484314,-0.16930127143859863
1783080489359701800,1.53070166015625,-1.3224239349365234,0.2873857319355011,-0.23806875944137573
1783080489379360000,1.550360107421875,-0.6633567810058594,0.17817279696464539,-0.2579311430454254
1783080489399210500,1.57021044921875,-0.12392711639404297,0.11156898736953735,-0.36327940225601196
1783080489419061000,1.59006103515625,0.27785396575927734,0.179738849401474,-0.3929722011089325
1783080489439104300,1.610104248046875,0.42838382720947266,0.16879664361476898,-0.26985642313957214
1783080489458955000,1.629955078125,0.4718599319458008,0.2432485669851303,-0.1863580048084259
1783080489478613200,1.64961328125,0.11094474792480469,0.3750291168689728,-0.08202589303255081
1783080489498656300,1.66965625,-0.0643167495727539,0.4010293483734131,0.05952662229537964
1783080489518314500,1.689314453125,0.17090988159179688,0.34252941608428955,0.08778348565101624
1783080489538357500,1.709357421875,0.49051856994628906,0.13601452112197876,0.1979866921901703
1783080489558015500,1.729015380859375,0.6435346603393555,-0.06098094582557678,0.2594377398490906
1783080489577904400,1.748904296875,0.4966917037963867,-0.06806263327598572,-0.0673830509185791
1783080489597755100,1.768755126953125,0.30477046966552734,-0.06750497221946716,-0.331275999546051
1783080489617567200,1.788567138671875,0.4249544143676758,0.00048026442527770996,-0.2810417711734772
1783080489637571600,1.808571533203125,0.8274049758911133,0.023275285959243774,0.026661276817321777
1783080489657268500,1.8282685546875,1.2312965393066406,-0.2566138803958893,0.5174586772918701
1783080489677119000,1.848118896484375,1.2542905807495117,-0.5873996019363403,0.6006694436073303
1783080489696969500,1.867969482421875,1.1122045516967773,-0.7345447540283203,0.04859498143196106
1783080489717012500,1.888012451171875,0.4482145309448242,-0.5184720158576965,-0.37452882528305054
1783080489736863500,1.907863525390625,-0.18767642974853516,-0.24562984704971313,-0.3687160015106201
1783080489756521500,1.927521484375,-0.5960826873779297,-0.1587875485420227,-0.19679796695709229
1783080489776564700,1.947564697265625,-0.632075309753418,-0.23400971293449402,0.4035617411136627
1783080489796222700,1.96722265625,-0.6263818740844727,-0.46470895409584045,1.2898913621902466
1783080489816265700,1.987265625,-0.380401611328125,-0.4029178023338318,1.521844744682312
1783080489836116500,2.007116455078125,-0.2690591812133789,-0.2686402201652527,1.374652624130249
1783080489855774700,2.026774658203125,-0.2774238586425781,-0.15919554233551025,0.7669504880905151
1783080489875414800,2.046414794921875,-0.5356521606445312,0.032229840755462646,-0.037901103496551514
1783080489895514400,2.066514404296875,-0.891326904296875,0.21566331386566162,-0.2469775676727295
1783080489915519000,2.08651904296875,-1.2348308563232422,0.43020743131637573,-0.12217842787504196
1783080489935369700,2.10636962890625,-1.4619483947753906,0.5626872777938843,0.1721855252981186
1783080489955028000,2.126028076171875,-1.3950328826904297,0.6816511154174805,0.2552972435951233
1783080489974878500,2.14587841796875,-1.1692085266113281,0.7316287755966187,0.11541178822517395
1783080489994921500,2.16592138671875,-0.8804874420166016,0.6688669919967651,0.04009171575307846
1783080490014772200,2.185772216796875,-0.46453380584716797,0.6928682923316956,-0.0996461883187294
1783080490034622700,2.205622802734375,0.02344226837158203,0.7155636548995972,-0.1715240329504013
1783080490054473500,2.225473388671875,0.07082653045654297,0.6880216598510742,-0.11794799566268921
1783080490074170000,2.245170166015625,0.12988948822021484,0.6733260750770569,-0.15430212020874023
1783080490093982200,2.264982177734375,0.11972618103027344,0.7726907134056091,-0.26913172006607056
1783080490114025200,2.285025146484375,0.1240072250366211,0.7264187932014465,-0.20124751329421997
1783080490133876000,2.3048759765625,0.11637115478515625,0.6299957036972046,-0.08955241739749908
1783080490153534000,2.324533935546875,0.6328248977661133,0.4864974021911621,-0.014721062034368515
1783080490173577000,2.344576904296875,1.0823497772216797,0.25771161913871765,0.16646617650985718
1783080490193235200,2.364235107421875,1.0842466354370117,0.09489524364471436,0.4018685817718506
1783080490213278200,2.3842783203125,0.8051738739013672,0.034659504890441895,0.49613264203071594
1783080490232974800,2.403974853515625,0.7803020477294922,0.14729855954647064,0.3966065049171448
1783080490252787000,2.423786865234375,0.6766719818115234,0.3078659474849701,0.08349334448575974
1783080490272637400,2.443637451171875,1.2422008514404297,0.09871500730514526,-0.041614703834056854
1783080490292488000,2.463488037109375,1.5352582931518555,-0.031991034746170044,-0.2863396108150482
1783080490312531000,2.483531005859375,1.1937217712402344,-0.37812650203704834,-0.23516835272312164
1783080490332189200,2.503189208984375,0.6075229644775391,-0.4834747910499573,-0.2911139130592346
1783080490352039700,2.523039794921875,0.44657230377197266,-0.2561573088169098,-0.5569193363189697
1783080490371890200,2.54289013671875,0.010913848876953125,-0.34241795539855957,-0.5195163488388062
1783080490391740700,2.56274072265625,0.007920265197753906,-0.5497341752052307,-0.25555288791656494
1783080490411784000,2.582783935546875,0.33637523651123047,-0.8100720643997192,0.07521475851535797
1783080490431442200,2.602442138671875,0.375244140625,-1.0462467670440674,0.4437047243118286
1783080490451292700,2.622292724609375,0.04952526092529297,-0.9598126411437988,0.5835456252098083
1783080490471143200,2.64214306640625,-0.6743268966674805,-0.6746546030044556,0.2805655598640442
1783080490490993700,2.66199365234375,-1.4199104309082031,-0.34572625160217285,-0.19191236793994904
1783080490511037000,2.682036865234375,-1.9970641136169434,-0.04110068082809448,-0.5226103663444519
1783080490530887700,2.7018876953125,-2.1266746520996094,0.07032465934753418,-0.5419268608093262
1783080490550738400,2.721738525390625,-1.8544530868530273,0.11308041214942932,-0.4563198685646057
1783080490570435000,2.74143505859375,-1.115478515625,0.16832831501960754,-0.5442765355110168
1783080490590285600,2.76128564453125,-0.3304309844970703,0.07795178890228271,-0.6662773489952087
1783080490610290200,2.781290283203125,0.32744407653808594,0.07136589288711548,-0.6777390837669373
1783080490630141200,2.80114111328125,0.5374183654785156,0.16973090171813965,-0.5044581890106201
1783080490649991700,2.82099169921875,0.38971900939941406,0.349333256483078,-0.3120768964290619
1783080490669842400,2.840842529296875,0.055144309997558594,0.3309478163719177,-0.20605331659317017
1783080490689693200,2.860693115234375,-0.22984886169433594,0.4087238013744354,-0.3064318597316742
1783080490709544000,2.8805439453125,-0.13490772247314453,0.44535744190216064,-0.36056026816368103
1783080490729394400,2.90039453125,0.26166629791259766,0.33355748653411865,-0.19913434982299805
1783080490749245200,2.9202451171875,0.6633319854736328,0.09557604789733887,0.04782424867153168
1783080490769095700,2.940095703125,0.7817449569702148,-0.0544392466545105,0.22116999328136444
1783080490788946400,2.959946533203125,0.7442159652709961,-0.07979632914066315,-0.16955330967903137
1783080490808797000,2.979796875,0.36376094818115234,0.05257830023765564,-0.6361857056617737
1783080490828647700,2.999647705078125,0.5460472106933594,0.09960117936134338,-0.4402497708797455
1783080490848498400,3.01949853515625,1.0178604125976562,0.2587471604347229,0.08828423917293549
1783080490868349000,3.039348876953125,1.2499685287475586,0.13015177845954895,1.1098746061325073
1783080490888199400,3.059199462890625,1.5509977340698242,-0.15010613203048706,1.6681861877441406
1783080490908050200,3.07905029296875,1.1155014038085938,-0.29362061619758606,1.394087553024292
1783080490927900700,3.098900634765625,0.7929220199584961,-0.4883209466934204,0.2942230999469757
1783080490947751400,3.11875146484375,0.5471391677856445,-0.45210790634155273,-0.521898627281189
1783080490967602000,3.138601806640625,0.2172679901123047,-0.5436739921569824,-0.5002303123474121
1783080490987452700,3.15845263671875,-0.22383689880371094,-0.4743542969226837,0.03891900181770325
1783080491007303200,3.17830322265625,-0.6356916427612305,-0.48420095443725586,0.8839139342308044
1783080491027154000,3.19815380859375,-0.8331127166748047,-0.3521891236305237,0.932380199432373
1783080491047004400,3.21800439453125,-0.9866781234741211,-0.2362353801727295,0.38790982961654663
1783080491066855200,3.237855224609375,-1.2529363632202148,-0.15456607937812805,-0.17183367908000946
1783080491086705700,3.25770556640625,-1.3752002716064453,-0.05473506450653076,-0.3864858150482178
1783080491106556400,3.277556396484375,-1.4628324508666992,0.1665935516357422,-0.3911951184272766
1783080491126407000,3.297406982421875,-1.3350744247436523,0.35075125098228455,-0.24186663329601288
1783080491146257400,3.31725732421875,-1.1005640029907227,0.43780025839805603,-0.15139591693878174
1783080491166108200,3.337108154296875,-0.7077188491821289,0.40786653757095337,-0.13922487199306488
1783080491185958700,3.356958740234375,-0.3930320739746094,0.4065592288970947,-0.17420579493045807
1783080491205809400,3.376809326171875,-0.12483882904052734,0.4722779095172882,-0.10585306584835052
1783080491225660000,3.396659912109375,-0.04093647003173828,0.5176224708557129,-0.020878314971923828
1783080491245510700,3.4165107421875,0.11897087097167969,0.5276705026626587,0.09617936611175537
1783080491265361200,3.436361083984375,-0.11521244049072266,0.4729010760784149,0.21882545948028564
1783080491285212000,3.4562119140625,-0.21981525421142578,0.5264007449150085,0.09411706030368805
1783080491305062400,3.4760625,-0.2446460723876953,0.6014301776885986,-0.17080938816070557
1783080491324913200,3.4959130859375,-0.21628570556640625,0.525840163230896,-0.21461474895477295
1783080491344763600,3.515763671875,0.07418346405029297,0.41812679171562195,-0.08679182827472687
1783080491364614100,3.5356142578125,0.5846881866455078,0.21571341156959534,0.1535051167011261
1783080491384465000,3.55546484375,0.8397684097290039,0.01060369610786438,0.2640209197998047
1783080491404277000,3.575277099609375,0.5427160263061523,-0.08938479423522949,0.07742670178413391
1783080491423973600,3.5949736328125,0.5927629470825195,-0.1581011712551117,-0.008614171296358109
1783080491443824000,3.61482421875,0.4545879364013672,0.05693298578262329,-0.02801535651087761
1783080491463867000,3.634866943359375,0.5089044570922852,-0.06382966041564941,0.14448979496955872
1783080491483525000,3.654525146484375,1.0497303009033203,-0.2863684892654419,0.041898228228092194
1783080491503375600,3.674375732421875,1.3274335861206055,-0.41103440523147583,-0.14864619076251984
1783080491523418600,3.694418701171875,1.0399274826049805,-0.727205216884613,-0.11713011562824249
1783080491543076900,3.714076904296875,0.5683431625366211,-0.823183536529541,-0.17897126078605652
1783080491563119900,3.734119873046875,0.12525272369384766,-0.5746632814407349,-0.2666010856628418
1783080491582778000,3.753778076171875,-0.2307901382446289,-0.6085516214370728,-0.19824782013893127
1783080491602821000,3.773821044921875,-0.36583900451660156,-0.8017998933792114,-0.0822099894285202
1783080491622479400,3.793479248046875,-0.15866947174072266,-1.0208847522735596,0.07031309604644775
1783080491642329600,3.81332958984375,0.15185546875,-1.0867875814437866,0.10413779318332672
1783080491662372600,3.83337255859375,0.3781471252441406,-0.995755672454834,-0.03175829350948334
1783080491682030800,3.85303076171875,0.15882492065429688,-0.7238655090332031,-0.08480030298233032
1783080491701881300,3.87288134765625,-0.46345996856689453,-0.4378567337989807,0.03156311810016632
1783080491721731800,3.89273193359375,-1.0152482986450195,-0.08374255895614624,-0.0024984627962112427
1783080491741775000,3.912775146484375,-1.2951374053955078,0.18356554210186005,-0.2058486044406891
1783080491761625900,3.9326259765625,-1.3602075576782227,0.30758416652679443,-0.3314695954322815
1783080491781284000,3.9522841796875,-1.054368019104004,0.331276535987854,-0.33527958393096924
1783080491801134600,3.972134521484375,-0.5954198837280273,0.3244311213493347,-0.3157370090484619
1783080491820985000,3.991985107421875,-0.08819389343261719,0.36702296137809753,-0.31881850957870483
1783080491840835600,4.011835693359375,0.17153167724609375,0.43493223190307617,-0.2324303388595581
1783080491860878800,4.03187890625,0.18231487274169922,0.45921626687049866,-0.07552492618560791
1783080491880729600,4.0517294921875,0.07876873016357422,0.5070735812187195,0.08709225058555603
1783080491900387800,4.071387939453125,0.01643848419189453,0.4659854769706726,0.2199890911579132
1783080491920238300,4.09123828125,0.1070413589477539,0.43919846415519714,0.324077844619751
1783080491940088800,4.1110888671875,0.29959869384765625,0.3409728407859802,0.5096727609634399
1783080491960131800,4.1311318359375,0.3554658889770508,0.22206179797649384,0.827237606048584
1783080491979790000,4.1507900390625,0.4372110366821289,0.15568214654922485,0.8691583275794983
1783080491999640600,4.170640625,0.42072105407714844,0.2057809978723526,0.42321428656578064
1783080492019683800,4.190683837890625,0.03283214569091797,0.2959556579589844,-0.04335493594408035
1783080492039534600,4.21053466796875,0.004609107971191406,0.24889005720615387,-0.07297536730766296
1783080492059385300,4.23038525390625,0.3223428726196289,0.2596118450164795,0.14083480834960938
1783080492079082000,4.25008203125,0.7036409378051758,0.2312871813774109,0.5376507043838501
1783080492098932500,4.269932373046875,1.1004533767700195,-0.09266155958175659,0.9016736745834351
1783080492118783000,4.289782958984375,1.3392276763916016,-0.350070059299469,0.8205269575119019
1783080492138787600,4.30978759765625,0.9805135726928711,-0.5256603360176086,0.31978002190589905
1783080492158638300,4.329638427734375,0.49802684783935547,-0.5217140913009644,-0.517852783203125
1783080492178296600,4.349296630859375,-0.08073902130126953,-0.43667393922805786,-0.9211389422416687
1783080492198339600,4.369339599609375,-0.3543739318847656,-0.4234941005706787,-0.8007826805114746
1783080492217997800,4.388997802734375,-0.4008913040161133,-0.4722539186477661,-0.36073383688926697
1783080492238040800,4.409040771484375,-0.2767829895019531,-0.5542722940444946,0.12767434120178223
1783080492257699000,4.428698974609375,0.05827140808105469,-0.6012328863143921,0.29580169916152954
1783080492277549600,4.448549560546875,0.10143184661865234,-0.6089017391204834,0.28613582253456116
1783080492297592600,4.468592529296875,-0.08674049377441406,-0.4828129708766937,0.012290388345718384
1783080492317443300,4.488443359375,-0.5744161605834961,-0.20734049379825592,-0.3900124430656433
1783080492337294000,4.508294189453125,-1.249410629272461,0.05926080048084259,-0.4415540397167206
1783080492356952300,4.527952392578125,-1.660618782043457,0.2883576452732086,-0.33870425820350647
1783080492376802600,4.547802490234375,-1.7906570434570312,0.49316954612731934,-0.22547930479049683
1783080492396653300,4.5676533203125,-1.7724380493164062,0.6563460826873779,-0.11111487448215485
1783080492416696300,4.5876962890625,-1.4451112747192383,0.7186744213104248,-0.1436927616596222
1783080492436547000,4.607547119140625,-0.7312555313110352,0.7326260805130005,-0.24427539110183716
1783080492456205300,4.627205322265625,-0.015773773193359375,0.7223560810089111,-0.26858460903167725
1783080492476055600,4.6470556640625,0.35587596893310547,0.6116798520088196,-0.08685413748025894
1783080492495906000,4.666906005859375,0.4683399200439453,0.5969844460487366,0.11842337995767593
1783080492515949300,4.68694921875,0.49663829803466797,0.6168641448020935,0.20729213953018188
1783080492535800000,4.706800048828125,0.3939027786254883,0.5048072934150696,0.17694222927093506
1783080492555458300,4.726458251953125,0.28969764709472656,0.5378888845443726,0.0821671336889267
1783080492575501300,4.746501220703125,0.22681903839111328,0.5162783265113831,0.14278073608875275
1783080492595159600,4.76615966796875,0.48581981658935547,0.4198477864265442,0.4663380980491638
1783080492615202600,4.78620263671875,0.7505731582641602,0.27574390172958374,0.8466173410415649
1783080492635053300,4.80605322265625,0.6733188629150391,0.15873023867607117,0.95787113904953
1783080492654711600,4.825711669921875,0.8441848754882812,0.02533048391342163,0.6247103810310364
1783080492674562000,4.84556201171875,0.9972782135009766,0.1025974303483963,0.19337472319602966
1783080492694412500,4.86541259765625,1.0325050354003906,0.06367754936218262,0.02347654104232788
1783080492714455600,4.88545556640625,1.2887382507324219,-0.10453663766384125,-0.044534340500831604
1783080492734306300,4.905306396484375,1.5220451354980469,-0.31805703043937683,-0.2654246389865875
1783080492753964500,4.924964599609375,1.232661247253418,-0.60591721534729,-0.47914034128189087
1783080492773815000,4.94481494140625,0.5666065216064453,-0.7556539177894592,-0.6689557433128357
1783080492793665500,4.96466552734375,0.10015201568603516,-0.6866609454154968,-0.8074113726615906
1783080492813708500,4.98470849609375,-0.33782958984375,-0.5674044489860535,-0.8179181218147278
1783080492833366800,5.00436669921875,-0.5453758239746094,-0.68837571144104,-0.4403020143508911
1783080492853217300,5.02421728515625,-0.3590230941772461,-0.8418048024177551,-0.14615502953529358
1783080492873260500,5.044260498046875,0.026200294494628906,-1.0263803005218506,-0.027496203780174255
1783080492892918500,5.06391845703125,0.11398792266845703,-1.0316411256790161,0.09845682978630066
1783080492912961800,5.0839619140625,-0.16316986083984375,-0.9547514915466309,0.2610039710998535
1783080492932812500,5.1038125,-0.7368154525756836,-0.6463155746459961,0.18804201483726501
1783080492952470800,5.123470703125,-1.3599586486816406,-0.41215306520462036,0.022212546318769455
1783080492972321300,5.1433212890625,-1.7986202239990234,-0.22170963883399963,-0.1982615739107132
1783080492992171800,5.163171875,-2.015763282775879,0.0273456871509552,-0.47875919938087463
1783080493012214800,5.18321484375,-1.7534313201904297,0.23787835240364075,-0.5522005558013916
1783080493031873000,5.202873046875,-1.2593803405761719,0.28154563903808594,-0.402958482503891
1783080493051723500,5.2227236328125,-0.7579994201660156,0.2969799041748047,-0.31092530488967896
1783080493071766500,5.2427666015625,-0.20373916625976562,0.4966311454772949,-0.3213701844215393
1783080493091424800,5.2624248046875,0.23617267608642578,0.5200520753860474,-0.0812327116727829
1783080493111468000,5.282468017578125,0.5191469192504883,0.4566171169281006,0.15159519016742706
1783080493131164700,5.30216455078125,0.7434663772583008,0.5113861560821533,0.22249776124954224
1783080493150976800,5.321976806640625,0.7831039428710938,0.5003551244735718,0.30095571279525757
1783080493170865700,5.34186572265625,0.9348115921020508,0.47444960474967957,0.31439805030822754
1783080493190677800,5.361677734375,1.0555181503295898,0.32885703444480896,0.3874458968639374
1783080493210721000,5.381720947265625,1.0354366302490234,0.08338706195354462,0.5292332172393799
1783080493230571800,5.40157177734375,0.7714614868164062,-0.05128981173038483,0.40947824716567993
1783080493250230000,5.42122998046875,0.547917366027832,0.06053474545478821,-0.16515563428401947
1783080493270080500,5.44108056640625,0.2566347122192383,0.1410301774740219,-0.3063414394855499
1783080493289931000,5.460930908203125,0.3449592590332031,0.09054827690124512,-0.017560094594955444
1783080493309974000,5.48097412109375,0.700347900390625,0.2113220989704132,0.1345430314540863
1783080493329824800,5.50082470703125,0.7861118316650391,-0.1017443835735321,0.32435745000839233
1783080493349675500,5.520675537109375,0.9296188354492188,-0.4515400230884552,0.15153449773788452
1783080493369526300,5.5405263671875,0.7550182342529297,-0.5290072560310364,-0.2934504449367523
1783080493389377000,5.560376953125,0.18201160430908203,-0.4720655381679535,-0.35405874252319336
1783080493409227800,5.580227783203125,-0.21143817901611328,-0.19758006930351257,-0.30435317754745483
1783080493429078500,5.60007861328125,-0.6127481460571289,-0.14161434769630432,0.0850018560886383
1783080493448929000,5.619928955078125,-0.9113950729370117,-0.2812039256095886,0.6470996141433716
1783080493468779800,5.63977978515625,-0.8327207565307617,-0.32575172185897827,0.9428826570510864
1783080493488630300,5.65963037109375,-0.5892400741577148,-0.29109156131744385,0.8350265622138977
1783080493508481000,5.67948095703125,0.032546043395996094,-0.24648970365524292,0.34478580951690674
1783080493528331800,5.699331787109375,0.17420196533203125,-0.27425822615623474,-0.16752392053604126
1783080493548182300,5.719182373046875,-0.029463768005371094,-0.12344793975353241,-0.4228695333003998
1783080493568033000,5.739032958984375,-0.4735116958618164,0.07759737968444824,-0.3555888831615448
1783080493587883800,5.7588837890625,-1.121415138244629,0.2940312922000885,-0.05285942554473877
1783080493607734300,5.778734375,-1.4470500946044922,0.47096723318099976,0.03907766938209534
1783080493627584800,5.798584716796875,-1.5693960189819336,0.5652811527252197,-0.016315758228302002
1783080493647435500,5.818435546875,-1.2965116500854492,0.667488694190979,-0.15747173130512238
1783080493667286000,5.8382861328125,-0.8896961212158203,0.6511604189872742,-0.3211747407913208
1783080493687136800,5.85813671875,-0.36106204986572266,0.6060256958007812,-0.4058714509010315
1783080493706987300,5.8779873046875,0.03679370880126953,0.6159321069717407,-0.34166204929351807
1783080493726838000,5.897838134765625,0.16170692443847656,0.6100594997406006,-0.17656134068965912
1783080493746650000,5.917650146484375,0.05089855194091797,0.6732301115989685,-0.053247854113578796
1783080493766539300,5.937539306640625,-0.05382347106933594,0.6370595693588257,-0.01094236969947815
1783080493786351400,5.957351318359375,-0.13137340545654297,0.5488225221633911,0.08612671494483948
1783080493806240500,5.977240478515625,-0.03944110870361328,0.4092656672000885,0.2446361780166626
1783080493826091000,5.997091064453125,0.30210018157958984,0.249916672706604,0.3733135759830475
1783080493845941800,6.016941650390625,0.5418272018432617,0.05733242630958557,0.6057857871055603
1783080493865792300,6.036792236328125,0.5538797378540039,-0.031054645776748657,0.7823081016540527
1783080493885643000,6.05664306640625,0.5562076568603516,-0.026243895292282104,0.7242165207862854
1783080493905493500,6.076493408203125,0.6465606689453125,0.03683462738990784,0.5397165417671204
1783080493925344300,6.09634423828125,0.8690080642700195,0.20648309588432312,0.2977360785007477
1783080493945194800,6.11619482421875,1.1487617492675781,0.09005117416381836,0.11223198473453522
1783080493965045500,6.13604541015625,1.7505226135253906,-0.05196261405944824,-0.12948131561279297
1783080493984896000,6.15589599609375,1.8637399673461914,-0.3387359082698822,-0.2181890308856964
1783080494004746800,6.175746826171875,1.3679351806640625,-0.47793877124786377,-0.17224183678627014
1783080494024597200,6.19559716796875,0.698033332824707,-0.49286580085754395,-0.21535493433475494
1783080494044448000,6.215447998046875,-0.06709480285644531,-0.3504329323768616,-0.2789930999279022
1783080494064298500,6.235298583984375,-0.5024032592773438,-0.39334821701049805,-0.2369663268327713
1783080494084149200,6.255149169921875,-0.5562114715576172,-0.4956032931804657,-0.07095901668071747
1783080494103807500,6.274807373046875,-0.3134298324584961,-0.6736687421798706,0.21472659707069397
1783080494123850200,6.294850341796875,-0.020122528076171875,-0.7443222999572754,0.3437357246875763
1783080494143701000,6.314700927734375,0.2715616226196289,-0.6732569932937622,0.11429091542959213
1783080494163551500,6.334551513671875,0.41203975677490234,-0.7181749939918518,-0.00696757435798645
1783080494183402200,6.35440234375,-0.12132072448730469,-0.7742648720741272,-0.03312886506319046
1783080494203099000,6.374098876953125,-0.6623620986938477,-0.5125218629837036,-0.06685797870159149
1783080494223103200,6.394103271484375,-1.1469841003417969,-0.17977109551429749,-0.18920084834098816
1783080494242761500,6.413761474609375,-1.5936450958251953,-0.02338188886642456,-0.3101953864097595
1783080494262804500,6.433804443359375,-1.589430809020996,0.01898258924484253,-0.34485915303230286
1783080494282462700,6.453462646484375,-1.3701791763305664,0.02110499143600464,-0.4335196316242218
1783080494302313200,6.473313232421875,-0.9549465179443359,0.0636138916015625,-0.3693101406097412
1783080494322163500,6.49316357421875,-0.5348005294799805,0.16794058680534363,-0.3013520836830139
1783080494342014000,6.513013916015625,-0.3782081604003906,0.19093352556228638,-0.25727277994155884
1783080494362057200,6.53305712890625,-0.2811117172241211,0.23190027475357056,-0.1506783813238144
1783080494381715500,6.552715576171875,-0.2818565368652344,0.40291446447372437,0.0729781836271286
1783080494401758500,6.572758544921875,-0.10653114318847656,0.31324416399002075,0.08367334306240082
1783080494421416700,6.592416748046875,-0.2540159225463867,0.16591855883598328,-0.2252177745103836
1783080494441459700,6.612459716796875,0.12599754333496094,0.047449976205825806,-0.19319464266300201
1783080494461310500,6.632310546875,0.8575782775878906,0.17157453298568726,0.21665985882282257
1783080494481007400,6.65200732421875,-0.27533531188964844,0.20915517210960388,0.7181424498558044
1783080494500857900,6.67185791015625,-0.12203216552734375,0.2382301390171051,0.4297494888305664
1783080494520708400,6.691708251953125,0.29186153411865234,0.31751692295074463,-0.08072365820407867
