time,seconds_elapsed,z,y,x
1783081005642067700,0.133067626953125,0.00013315795513335615,-0.00013315795513335615,0.0006657897611148655
1783081005681706000,0.1727060546875,0.00013315795513335615,-0.00013315795513335615,-0.0003994738799519837
1783081005701401000,0.192401123046875,0.00013315795513335615,-0.00013315795513335615,-0.0003994738799519837
1783081005721250000,0.21225,0.00013315795513335615,-0.00013315795513335615,-0.0003994738799519837
1783081005741098800,0.2320986328125,0.00013315795513335615,-0.0011984215816482902,0.0006657897611148655
1783081005760948000,0.251947998046875,0.00013315795513335615,-0.0011984215816482902,-0.0003994738799519837
1783081005780797000,0.271796875,0.00013315795513335615,-0.00013315795513335615,-0.001464737462811172
1783081005800646000,0.29164599609375,-0.0009321057004854083,-0.0011984215816482902,-0.0003994738799519837
1783081005820639200,0.31163916015625,0.00013315795513335615,-0.00013315795513335615,-0.0003994738799519837
1783081005840490000,0.331489990234375,0.0011984215816482902,0.0009321057004854083,0.0006657897611148655
1783081005860340200,0.35134033203125,0.00013315795513335615,-0.00013315795513335615,0.0006657897611148655
1783081005880190200,0.371190185546875,0.00013315795513335615,-0.0011984215816482902,-0.0003994738799519837
1783081005900040000,0.3910400390625,0.00013315795513335615,-0.0011984215816482902,-0.0003994738799519837
1783081005919889700,0.4108896484375,0.00013315795513335615,0.0009321057004854083,-0.0003994738799519837
1783081005939739400,0.430739501953125,0.0011984215816482902,-0.00013315795513335615,-0.0003994738799519837
1783081005959588900,0.4505888671875,0.00013315795513335615,-0.00013315795513335615,-0.0003994738799519837
1783081005979438000,0.47043798828125,0.00013315795513335615,0.0009321057004854083,-0.0003994738799519837
1783081005999287300,0.490287353515625,-0.0009321057004854083,-0.00013315795513335615,0.0006657897611148655
1783081006019136800,0.51013671875,-0.0009321057004854083,0.0009321057004854083,-0.0003994738799519837
1783081006038986000,0.529986083984375,0.00013315795513335615,-0.00013315795513335615,0.0006657897611148655
1783081006058835000,0.5498349609375,0.00013315795513335615,-0.00013315795513335615,0.0006657897611148655
1783081006078511000,0.569510986328125,-0.0009321057004854083,-0.00013315795513335615,-0.0003994738799519837
1783081006098356000,0.58935595703125,0.00013315795513335615,-0.00013315795513335615,-0.0003994738799519837
1783081006118201900,0.609201904296875,0.00013315795513335615,-0.00013315795513335615,-0.0003994738799519837
1783081006138048300,0.62904833984375,0.00013315795513335615,-0.00013315795513335615,-0.0003994738799519837
1783081006158068200,0.649068115234375,0.00013315795513335615,-0.00013315795513335615,0.0006657897611148655
1783081006177746400,0.668746337890625,0.00013315795513335615,-0.00013315795513335615,-0.0003994738799519837
1783081006197593600,0.688593505859375,0.00013315795513335615,-0.00013315795513335615,-0.0003994738799519837
1783081006217440800,0.708440673828125,0.00013315795513335615,-0.00013315795513335615,-0.0003994738799519837
1783081006237461500,0.72846142578125,0.0011984215816482902,0.0009321057004854083,-0.0003994738799519837
1783081006257313800,0.748313720703125,-0.0009321057004854083,-0.00013315795513335615,0.0006657897611148655
1783081006277026600,0.768026611328125,-0.0009321057004854083,0.0009321057004854083,0.0006657897611148655
1783081006296874200,0.787874267578125,0.0011984215816482902,0.0009321057004854083,-0.0003994738799519837
1783081006316722400,0.807722412109375,0.00013315795513335615,-0.00013315795513335615,-0.0003994738799519837
1783081006336536000,0.8275361328125,0.00013315795513335615,-0.00013315795513335615,-0.0003994738799519837
1783081006356556500,0.847556640625,0.0011984215816482902,-0.00013315795513335615,0.0006657897611148655
1783081006376408600,0.86740869140625,0.00013315795513335615,-0.00013315795513335615,0.0006657897611148655
1783081006396086800,0.887086669921875,0.00013315795513335615,0.0009321057004854083,-0.0003994738799519837
1783081006415933400,0.906933349609375,0.00013315795513335615,-0.00013315795513335615,-0.0003994738799519837
1783081006435780900,0.92678076171875,0.00013315795513335615,-0.00013315795513335615,-0.0003994738799519837
1783081006455801300,0.94680126953125,0.00013315795513335615,-0.00013315795513335615,-0.0003994738799519837
1783081006475480000,0.96647998046875,-0.0009321057004854083,-0.00013315795513335615,-0.0003994738799519837
1783081006495327500,0.986327392578125,0.00013315795513335615,-0.0011984215816482902,-0.0003994738799519837
1783081006515348200,1.00634814453125,0.00013315795513335615,-0.00013315795513335615,-0.0003994738799519837
1783081006535200500,1.026200439453125,0.00013315795513335615,-0.0011984215816482902,-0.0003994738799519837
1783081006555052000,1.046052001953125,-0.0009321057004854083,-0.00013315795513335615,-0.001464737462811172
1783081006574729700,1.065729736328125,0.00013315795513335615,0.0009321057004854083,-0.0003994738799519837
1783081006594576100,1.085576171875,0.00013315795513335615,-0.00013315795513335615,-0.0003994738799519837
1783081006614423300,1.10542333984375,0.00013315795513335615,-0.0011984215816482902,0.0006657897611148655
1783081006634270700,1.125270751953125,0.00013315795513335615,-0.0011984215816482902,0.0006657897611148655
1783081006654291500,1.14529150390625,-0.0009321057004854083,-0.0011984215816482902,-0.0003994738799519837
1783081006674005000,1.1650048828125,0.00013315795513335615,0.0009321057004854083,-0.0003994738799519837
1783081006693853200,1.184853271484375,0.00013315795513335615,-0.00013315795513335615,-0.0003994738799519837
1783081006713701600,1.20470166015625,-0.0009321057004854083,-0.00013315795513335615,-0.0003994738799519837
1783081006733550000,1.224550048828125,0.00013315795513335615,-0.0011984215816482902,0.0006657897611148655
1783081006753364200,1.2443642578125,0.00013315795513335615,-0.00013315795513335615,-0.0003994738799519837
1783081006773212200,1.264212158203125,0.00013315795513335615,-0.00013315795513335615,-0.0003994738799519837
1783081006793233400,1.2842333984375,0.00013315795513335615,-0.00013315795513335615,-0.0003994738799519837
1783081006812912400,1.303912353515625,-0.0009321057004854083,-0.00013315795513335615,0.0006657897611148655
1783081006832933000,1.32393310546875,0.00013315795513335615,0.0009321057004854083,-0.0003994738799519837
1783081006852611800,1.34361181640625,0.00013315795513335615,-0.00013315795513335615,-0.0003994738799519837
1783081006872459300,1.363459228515625,-0.0009321057004854083,-0.00013315795513335615,0.0006657897611148655
1783081006892307200,1.38330712890625,0.00013315795513335615,-0.00013315795513335615,-0.0003994738799519837
1783081006912155100,1.403155029296875,0.00013315795513335615,-0.00013315795513335615,-0.0003994738799519837
1783081006932176400,1.42317626953125,-0.0009321057004854083,-0.00013315795513335615,-0.0003994738799519837
1783081006951855600,1.442855712890625,-0.0009321057004854083,-0.00013315795513335615,-0.0003994738799519837
1783081006971703300,1.462703369140625,0.00013315795513335615,0.0009321057004854083,-0.0003994738799519837
1783081006991551200,1.48255126953125,0.00013315795513335615,-0.00013315795513335615,0.0006657897611148655
1783081007011399400,1.5023994140625,0.00013315795513335615,-0.00013315795513335615,0.0006657897611148655
1783081007031248000,1.522247802734375,0.00013315795513335615,0.0009321057004854083,-0.0003994738799519837
1783081007051096300,1.542096435546875,0.00013315795513335615,0.0009321057004854083,-0.0003994738799519837
1783081007071118000,1.5621181640625,0.00013315795513335615,-0.00013315795513335615,0.0006657897611148655
1783081007090797600,1.581797607421875,0.00013315795513335615,-0.0011984215816482902,-0.0003994738799519837
1783081007110645500,1.6016455078125,0.00013315795513335615,-0.00013315795513335615,-0.0003994738799519837
1783081007130666800,1.621666748046875,0.00013315795513335615,-0.00013315795513335615,-0.0003994738799519837
1783081007170384400,1.66138427734375,0.00013315795513335615,0.0009321057004854083,-0.0003994738799519837
1783081007190233600,1.681233642578125,0.00013315795513335615,-0.0011984215816482902,0.0006657897611148655
1783081007210044200,1.701044189453125,-0.0009321057004854083,-0.0011984215816482902,-0.0003994738799519837
1783081007229931800,1.720931884765625,-0.0009321057004854083,-0.0011984215816482902,-0.0003994738799519837
1783081007249781000,1.740781005859375,0.00013315795513335615,-0.00013315795513335615,-0.0003994738799519837
1783081007269630000,1.7606298828125,0.00013315795513335615,-0.0011984215816482902,-0.0003994738799519837
1783081007289479200,1.780479248046875,0.00013315795513335615,-0.00013315795513335615,-0.0003994738799519837
1783081007309289700,1.800289794921875,0.00013315795513335615,-0.00013315795513335615,-0.0003994738799519837
1783081007329023200,1.820023193359375,0.00013315795513335615,-0.00013315795513335615,0.0006657897611148655
1783081007348833800,1.839833740234375,0.00013315795513335615,-0.00013315795513335615,-0.0003994738799519837
1783081007368875000,1.859875,0.00013315795513335615,0.0009321057004854083,-0.0003994738799519837
1783081007388531700,1.87953173828125,0.00013315795513335615,-0.00013315795513335615,-0.0003994738799519837
1783081007408380700,1.899380615234375,0.00013315795513335615,-0.00013315795513335615,-0.0003994738799519837
1783081007428229600,1.919229736328125,0.00013315795513335615,0.0009321057004854083,0.0006657897611148655
1783081007448271000,1.93927099609375,0.00013315795513335615,0.0009321057004854083,-0.0003994738799519837
1783081007468120300,1.959120361328125,-0.0009321057004854083,-0.00013315795513335615,-0.0003994738799519837
1783081007487776800,1.97877685546875,-0.0009321057004854083,-0.0011984215816482902,-0.0003994738799519837
1783081007507818200,1.998818359375,0.00013315795513335615,0.0009321057004854083,-0.0003994738799519837
1783081007527475000,2.018474853515625,0.00013315795513335615,0.0009321057004854083,0.0006657897611148655
1783081007547324000,2.038323974609375,0.00013315795513335615,-0.00013315795513335615,0.0006657897611148655
1783081007567365400,2.058365478515625,0.00013315795513335615,-0.00013315795513335615,0.0006657897611148655
1783081007587022000,2.07802197265625,0.00013315795513335615,-0.00013315795513335615,-0.0003994738799519837
1783081007606870800,2.097870849609375,0.00013315795513335615,-0.00013315795513335615,0.0006657897611148655
1783081007626719700,2.1177197265625,0.00013315795513335615,-0.00013315795513335615,-0.0003994738799519837
1783081007646568700,2.137568603515625,-0.0009321057004854083,-0.0022636852227151394,0.0006657897611148655
1783081007666610400,2.1576103515625,0.00013315795513335615,-0.00013315795513335615,-0.0003994738799519837
1783081007686267000,2.177266845703125,-0.0009321057004854083,-0.0011984215816482902,-0.0003994738799519837
1783081007706116000,2.1971162109375,-0.0009321057004854083,-0.00013315795513335615,0.0006657897611148655
1783081007726003500,2.21700341796875,0.00013315795513335615,-0.00013315795513335615,-0.0003994738799519837
1783081007746006500,2.237006591796875,0.00013315795513335615,-0.00013315795513335615,0.0006657897611148655
1783081007765855700,2.256855712890625,-0.0009321057004854083,-0.0011984215816482902,0.0006657897611148655
1783081007785705000,2.276705078125,0.00013315795513335615,-0.00013315795513335615,-0.0003994738799519837
1783081007805400000,2.296400146484375,0.00013315795513335615,0.0009321057004854083,0.0006657897611148655
1783081007825210600,2.316210693359375,0.00013315795513335615,-0.00013315795513335615,-0.0003994738799519837
1783081007845252000,2.336252197265625,0.00013315795513335615,-0.00013315795513335615,-0.0003994738799519837
1783081007865101300,2.356101318359375,0.00013315795513335615,-0.00013315795513335615,0.0006657897611148655
1783081007884758000,2.375758056640625,-0.0009321057004854083,-0.00013315795513335615,0.0006657897611148655
1783081007904606700,2.395606689453125,0.00013315795513335615,-0.00013315795513335615,-0.0003994738799519837
1783081007924648200,2.415648193359375,0.00013315795513335615,-0.00013315795513335615,-0.0003994738799519837
1783081007944497400,2.435497314453125,0.00013315795513335615,-0.00013315795513335615,0.0006657897611148655
1783081007964346600,2.4553466796875,-0.0009321057004854083,0.0009321057004854083,0.0006657897611148655
1783081007984003300,2.47500341796875,0.00013315795513335615,-0.00013315795513335615,-0.0003994738799519837
1783081008003852000,2.49485205078125,0.0011984215816482902,-0.00013315795513335615,-0.0003994738799519837
1783081008023701000,2.514700927734375,0.00013315795513335615,-0.00013315795513335615,-0.0003994738799519837
1783081008043742500,2.534742431640625,0.00013315795513335615,-0.0011984215816482902,-0.0003994738799519837
1783081008063591700,2.554591796875,-0.0009321057004854083,-0.00013315795513335615,0.0006657897611148655
1783081008083248400,2.574248291015625,-0.0009321057004854083,-0.00013315795513335615,0.0017310534603893757
1783081008103097300,2.594097412109375,0.00013315795513335615,-0.00013315795513335615,0.0006657897611148655
1783081008123138800,2.614138916015625,0.00013315795513335615,-0.00013315795513335615,-0.0003994738799519837
1783081008142987800,2.63398779296875,0.00013315795513335615,0.0009321057004854083,-0.0003994738799519837
1783081008162644500,2.65364453125,0.00013315795513335615,-0.00013315795513335615,-0.0003994738799519837
1783081008182493400,2.673493408203125,0.00013315795513335615,-0.00013315795513335615,0.0006657897611148655
1783081008202535000,2.693534912109375,0.00013315795513335615,0.0009321057004854083,0.0006657897611148655
1783081008222191600,2.713191650390625,0.00013315795513335615,-0.00013315795513335615,0.0006657897611148655
1783081008242233000,2.733233154296875,0.00013315795513335615,-0.00013315795513335615,-0.0003994738799519837
1783081008261889500,2.7528896484375,0.00013315795513335615,-0.00013315795513335615,0.0006657897611148655
1783081008281738500,2.772738525390625,0.00013315795513335615,-0.00013315795513335615,0.0006657897611148655
1783081008301587500,2.79258740234375,0.00013315795513335615,0.0009321057004854083,-0.0003994738799519837
1783081008321629000,2.81262890625,-0.0009321057004854083,-0.00013315795513335615,-0.0003994738799519837
1783081008341478400,2.832478515625,0.00013315795513335615,-0.00013315795513335615,0.0006657897611148655
1783081008361134800,2.852134765625,0.00013315795513335615,-0.00013315795513335615,-0.0003994738799519837
1783081008380983800,2.87198388671875,0.00013315795513335615,-0.00013315795513335615,-0.0003994738799519837
1783081008400832800,2.891832763671875,0.00013315795513335615,-0.0011984215816482902,-0.0003994738799519837
1783081008420874200,2.911874267578125,0.00013315795513335615,-0.00013315795513335615,0.0006657897611148655
1783081008440723500,2.931723388671875,0.00013315795513335615,-0.00013315795513335615,0.0006657897611148655
1783081008460380200,2.951380126953125,0.00013315795513335615,-0.00013315795513335615,0.0006657897611148655
1783081008480421600,2.971421630859375,0.00013315795513335615,-0.00013315795513335615,-0.0003994738799519837
1783081008500078300,2.991078369140625,-0.0009321057004854083,-0.00013315795513335615,-0.0003994738799519837
1783081008520119800,3.011119873046875,0.00013315795513335615,-0.00013315795513335615,0.0006657897611148655
1783081008539969000,3.030968994140625,0.0011984215816482902,-0.00013315795513335615,-0.0003994738799519837
1783081008559625500,3.05062548828125,-0.0009321057004854083,-0.0011984215816482902,-0.0003994738799519837
1783081008579474400,3.070474365234375,0.00013315795513335615,-0.00013315795513335615,-0.0003994738799519837
1783081008599323400,3.090323486328125,0.00013315795513335615,-0.00013315795513335615,-0.0003994738799519837
1783081008619364900,3.11036474609375,-0.0009321057004854083,-0.00013315795513335615,0.0006657897611148655
1783081008639214000,3.130214111328125,0.00013315795513335615,-0.00013315795513335615,0.0006657897611148655
1783081008658870800,3.149870849609375,0.00013315795513335615,-0.0011984215816482902,0.0006657897611148655
1783081008678719500,3.169719482421875,-0.0009321057004854083,-0.00013315795513335615,-0.0003994738799519837
1783081008698568400,3.189568359375,0.00013315795513335615,0.0009321057004854083,0.0006657897611148655
1783081008718610000,3.20960986328125,0.00013315795513335615,-0.00013315795513335615,-0.0003994738799519837
1783081008738266600,3.2292666015625,0.00013315795513335615,-0.00013315795513335615,-0.0003994738799519837
1783081008758154000,3.249154052734375,0.00013315795513335615,0.0009321057004854083,-0.0003994738799519837
1783081008778003000,3.2690029296875,0.0011984215816482902,0.0009321057004854083,0.0006657897611148655
1783081008797852000,3.288851806640625,0.0011984215816482902,0.0009321057004854083,-0.0003994738799519837
1783081008817855200,3.308855224609375,0.00013315795513335615,-0.00013315795513335615,-0.0003994738799519837
1783081008837704400,3.328704345703125,0.00013315795513335615,-0.00013315795513335615,-0.0003994738799519837
1783081008857361200,3.348361083984375,0.00013315795513335615,-0.00013315795513335615,0.0006657897611148655
1783081008877210000,3.368210205078125,0.00013315795513335615,-0.0011984215816482902,-0.0003994738799519837
1783081008897058800,3.388058837890625,0.00013315795513335615,-0.0011984215816482902,-0.0003994738799519837
1783081008917100500,3.4081005859375,0.00013315795513335615,-0.0011984215816482902,-0.0003994738799519837
1783081008936757200,3.42775732421875,0.0011984215816482902,-0.00013315795513335615,-0.0003994738799519837
1783081008956606200,3.447606201171875,-0.0009321057004854083,-0.00013315795513335615,-0.0003994738799519837
1783081008976455000,3.467454833984375,-0.0009321057004854083,-0.00013315795513335615,0.0006657897611148655
1783081008996304000,3.487303955078125,0.00013315795513335615,-0.0011984215816482902,-0.0003994738799519837
1783081009016345600,3.507345703125,0.00013315795513335615,-0.00013315795513335615,-0.0003994738799519837
1783081009036002300,3.527002197265625,-0.0009321057004854083,-0.0011984215816482902,0.0006657897611148655
1783081009055851300,3.546851318359375,-0.0009321057004854083,-0.0011984215816482902,-0.0003994738799519837
1783081009075700200,3.5667001953125,-0.0009321057004854083,0.0009321057004854083,-0.0003994738799519837
1783081009095549200,3.586549072265625,0.00013315795513335615,0.0009321057004854083,-0.0003994738799519837
1783081009115590700,3.606590576171875,0.00013315795513335615,0.0009321057004854083,0.0006657897611148655
1783081009135247400,3.626247314453125,-0.0009321057004854083,-0.00013315795513335615,-0.0003994738799519837
1783081009155096300,3.646096435546875,0.00013315795513335615,-0.00013315795513335615,-0.0003994738799519837
1783081009175138000,3.666137939453125,-0.0009321057004854083,0.0009321057004854083,-0.0003994738799519837
1783081009194794800,3.685794677734375,0.00013315795513335615,-0.00013315795513335615,-0.0003994738799519837
1783081009214836000,3.7058359375,0.00013315795513335615,-0.00013315795513335615,0.0006657897611148655
1783081009234671400,3.72567138671875,-0.0009321057004854083,-0.00013315795513335615,-0.0003994738799519837
1783081009254522600,3.745522705078125,0.00013315795513335615,-0.00013315795513335615,-0.0003994738799519837
1783081009274373600,3.76537353515625,0.0011984215816482902,-0.00013315795513335615,-0.0003994738799519837
1783081009294224400,3.785224365234375,0.00013315795513335615,-0.00013315795513335615,0.0006657897611148655
1783081009314074600,3.80507470703125,0.00013315795513335615,-0.0011984215816482902,0.0006657897611148655
1783081009333924600,3.824924560546875,0.00013315795513335615,-0.00013315795513335615,0.0006657897611148655
1783081009353601300,3.844601318359375,0.00013315795513335615,0.0009321057004854083,0.0006657897611148655
1783081009373446700,3.86444677734375,0.00013315795513335615,0.0009321057004854083,0.0006657897611148655
1783081009393293000,3.88429296875,0.0011984215816482902,-0.00013315795513335615,-0.0003994738799519837
1783081009413140000,3.904139892578125,0.0011984215816482902,-0.00013315795513335615,0.0006657897611148655
1783081009433160000,3.924159912109375,0.0011984215816482902,-0.00013315795513335615,-0.0003994738799519837
1783081009453011700,3.94401171875,0.0011984215816482902,-0.00013315795513335615,0.0006657897611148655
1783081009472689700,3.963689697265625,0.00013315795513335615,-0.00013315795513335615,-0.0003994738799519837
1783081009492536600,3.98353662109375,0.00013315795513335615,-0.00013315795513335615,0.0006657897611148655
1783081009512556500,4.003556640625,0.00013315795513335615,-0.00013315795513335615,0.0006657897611148655
1783081009532408300,4.023408203125,-0.0009321057004854083,-0.00013315795513335615,-0.0003994738799519837
1783081009552086300,4.043086181640625,0.00013315795513335615,-0.00013315795513335615,-0.0003994738799519837
1783081009571933000,4.062932861328125,0.00013315795513335615,-0.00013315795513335615,-0.0003994738799519837
1783081009591953000,4.082952880859375,0.00013315795513335615,-0.00013315795513335615,-0.0003994738799519837
1783081009611804700,4.1028046875,0.00013315795513335615,-0.00013315795513335615,0.0006657897611148655
1783081009631656000,4.122656005859375,0.00013315795513335615,-0.00013315795513335615,-0.0003994738799519837
1783081009651333400,4.14233349609375,0.00013315795513335615,0.0009321057004854083,-0.0003994738799519837
1783081009671179500,4.162179443359375,-0.0009321057004854083,-0.00013315795513335615,0.0006657897611148655
1783081009691026400,4.1820263671875,0.0011984215816482902,-0.00013315795513335615,-0.0003994738799519837
1783081009711046700,4.202046630859375,0.00013315795513335615,-0.00013315795513335615,-0.0003994738799519837
1783081009730898400,4.2218984375,0.00013315795513335615,-0.0011984215816482902,-0.001464737462811172
1783081009750576400,4.241576416015625,0.00013315795513335615,-0.00013315795513335615,-0.0003994738799519837
1783081009770423000,4.261423095703125,0.00013315795513335615,-0.0011984215816482902,0.0006657897611148655
1783081009790304800,4.2813046875,0.00013315795513335615,-0.00013315795513335615,-0.0003994738799519837
1783081009810291700,4.301291748046875,0.00013315795513335615,-0.00013315795513335615,-0.0003994738799519837
1783081009830143500,4.3211435546875,0.00013315795513335615,0.0009321057004854083,-0.0003994738799519837
1783081009849856300,4.340856201171875,0.00013315795513335615,-0.00013315795513335615,-0.0003994738799519837
1783081009869842200,4.36084228515625,0.00013315795513335615,-0.00013315795513335615,-0.0003994738799519837
1783081009889520000,4.38052001953125,-0.0009321057004854083,-0.00013315795513335615,0.0006657897611148655
1783081009909539600,4.40053955078125,-0.0009321057004854083,-0.00013315795513335615,-0.0003994738799519837
1783081009929390800,4.420390869140625,0.00013315795513335615,-0.0011984215816482902,-0.0003994738799519837
1783081009949068500,4.440068603515625,-0.0009321057004854083,-0.00013315795513335615,-0.0003994738799519837
1783081009968915000,4.4599150390625,0.00013315795513335615,0.0009321057004854083,0.0006657897611148655
1783081009988761900,4.479761962890625,0.0011984215816482902,-0.00013315795513335615,-0.0003994738799519837
1783081010008782000,4.499781982421875,0.00013315795513335615,-0.00013315795513335615,0.0006657897611148655
1783081010028460500,4.51946044921875,0.00013315795513335615,-0.00013315795513335615,-0.0003994738799519837
1783081010048308000,4.539307861328125,0.00013315795513335615,-0.0011984215816482902,-0.0003994738799519837
1783081010068328400,4.559328369140625,-0.0009321057004854083,-0.00013315795513335615,-0.001464737462811172
1783081010088007200,4.579007080078125,-0.0009321057004854083,-0.0011984215816482902,-0.0003994738799519837
1783081010108027400,4.59902734375,0.00013315795513335615,-0.00013315795513335615,0.0006657897611148655
1783081010127879200,4.618879150390625,0.00013315795513335615,-0.00013315795513335615,0.0006657897611148655
1783081010147557000,4.63855712890625,0.00013315795513335615,-0.00013315795513335615,-0.0003994738799519837
1783081010167404000,4.658404052734375,0.00013315795513335615,-0.00013315795513335615,0.0006657897611148655
1783081010187251200,4.678251220703125,-0.0009321057004854083,-0.00013315795513335615,0.0006657897611148655
1783081010207271700,4.698271728515625,-0.0009321057004854083,-0.00013315795513335615,0.0006657897611148655
1783081010227123700,4.718123779296875,0.00013315795513335615,-0.00013315795513335615,-0.0003994738799519837
1783081010246802000,4.737802001953125,0.00013315795513335615,-0.00013315795513335615,-0.0003994738799519837
1783081010266648800,4.75764892578125,0.00013315795513335615,-0.00013315795513335615,-0.0003994738799519837
1783081010286496000,4.77749609375,0.00013315795513335615,-0.00013315795513335615,-0.0003994738799519837
1783081010306516700,4.797516845703125,0.00013315795513335615,-0.00013315795513335615,-0.0003994738799519837
1783081010326195500,4.817195556640625,0.0011984215816482902,-0.00013315795513335615,0.0006657897611148655
1783081010346043000,4.83704296875,0.00013315795513335615,-0.0011984215816482902,0.0006657897611148655
1783081010366063600,4.857063720703125,0.0011984215816482902,0.0009321057004854083,-0.0003994738799519837
1783081010385742300,4.876742431640625,0.00013315795513335615,0.0009321057004854083,-0.0003994738799519837
1783081010405762800,4.8967626953125,0.00013315795513335615,-0.00013315795513335615,-0.0003994738799519837
1783081010425441300,4.916441162109375,0.00013315795513335615,-0.0011984215816482902,-0.0003994738799519837
1783081010445288400,4.936288330078125,0.00013315795513335615,-0.0011984215816482902,0.0006657897611148655
1783081010465309200,4.95630908203125,0.00013315795513335615,-0.00013315795513335615,-0.0003994738799519837
1783081010484988000,4.97598779296875,0.00013315795513335615,-0.0011984215816482902,-0.0003994738799519837
1783081010505008000,4.996008056640625,0.00013315795513335615,-0.00013315795513335615,0.0006657897611148655
1783081010524686600,5.0156865234375,0.00013315795513335615,0.0009321057004854083,-0.0003994738799519837
1783081010544534000,5.035533935546875,0.00013315795513335615,-0.00013315795513335615,-0.0003994738799519837
1783081010564554500,5.055554443359375,-0.0009321057004854083,-0.0011984215816482902,-0.0003994738799519837
1783081010584233200,5.075233154296875,0.00013315795513335615,-0.00013315795513335615,0.0006657897611148655
1783081010604253700,5.095253662109375,0.00013315795513335615,-0.00013315795513335615,-0.001464737462811172
1783081010623932000,5.114931884765625,0.00013315795513335615,-0.00013315795513335615,-0.001464737462811172
1783081010643779300,5.134779296875,0.00013315795513335615,0.0009321057004854083,-0.0003994738799519837
1783081010663799800,5.1547998046875,-0.0009321057004854083,-0.00013315795513335615,0.0006657897611148655
1783081010683478500,5.174478515625,0.00013315795513335615,-0.00013315795513335615,0.0006657897611148655
1783081010703498800,5.194498779296875,0.00013315795513335615,0.0009321057004854083,0.0006657897611148655
1783081010723177200,5.21417724609375,0.00013315795513335615,-0.00013315795513335615,0.0006657897611148655
1783081010743024600,5.234024658203125,0.00013315795513335615,-0.00013315795513335615,-0.0003994738799519837
1783081010763045000,5.254045166015625,0.00013315795513335615,-0.00013315795513335615,-0.0003994738799519837
1783081010782897200,5.273897216796875,0.00013315795513335615,0.0009321057004854083,-0.0003994738799519837
1783081010802748700,5.293748779296875,0.00013315795513335615,-0.00013315795513335615,0.0006657897611148655
1783081010822599400,5.313599365234375,-0.0009321057004854083,-0.00013315795513335615,-0.0003994738799519837
1783081010842311400,5.3333115234375,0.00013315795513335615,-0.00013315795513335615,-0.0003994738799519837
1783081010862296800,5.353296875,0.00013315795513335615,-0.00013315795513335615,0.0006657897611148655
1783081010882008800,5.3730087890625,0.00013315795513335615,0.0009321057004854083,-0.0003994738799519837
1783081010901994500,5.392994384765625,-0.0009321057004854083,-0.0011984215816482902,-0.0003994738799519837
1783081010941758200,5.43275830078125,0.00013315795513335615,0.0009321057004854083,0.0006657897611148655
1783081010961553000,5.452552978515625,0.0011984215816482902,-0.00013315795513335615,0.0006657897611148655
1783081010981402000,5.472402099609375,0.00013315795513335615,-0.00013315795513335615,0.0006657897611148655
1783081011001251000,5.4922509765625,0.00013315795513335615,-0.00013315795513335615,-0.0003994738799519837
1783081011021100300,5.512100341796875,0.00013315795513335615,0.0009321057004854083,-0.001464737462811172
1783081011040949200,5.53194921875,0.0011984215816482902,-0.00013315795513335615,0.0006657897611148655
1783081011060606000,5.55160595703125,0.00013315795513335615,-0.00013315795513335615,-0.0003994738799519837
1783081011080454700,5.57145458984375,-0.0009321057004854083,-0.0011984215816482902,0.0006657897611148655
1783081011100303600,5.5913037109375,0.00013315795513335615,-0.0011984215816482902,-0.0003994738799519837
1783081011120344800,5.6113447265625,0.00013315795513335615,0.0009321057004854083,-0.0003994738799519837
1783081011140194000,5.631194091796875,0.0011984215816482902,-0.00013315795513335615,-0.0003994738799519837
1783081011159850800,5.650850830078125,0.00013315795513335615,-0.00013315795513335615,0.0006657897611148655
1783081011179699700,5.67069970703125,0.00013315795513335615,-0.00013315795513335615,-0.0003994738799519837
1783081011199548400,5.69054833984375,0.00013315795513335615,-0.00013315795513335615,-0.0003994738799519837
1783081011219590000,5.71058984375,0.00013315795513335615,-0.00013315795513335615,-0.0003994738799519837
1783081011239439000,5.730439208984375,-0.0009321057004854083,-0.00013315795513335615,-0.0003994738799519837
1783081011259095800,5.750095703125,0.00013315795513335615,-0.0011984215816482902,-0.0003994738799519837
1783081011279137300,5.77013720703125,0.00013315795513335615,-0.00013315795513335615,-0.0003994738799519837
1783081011298794000,5.7897939453125,-0.0009321057004854083,0.0009321057004854083,0.0006657897611148655
1783081011318835200,5.809835205078125,0.00013315795513335615,-0.00013315795513335615,0.0006657897611148655
1783081011338684400,5.829684326171875,0.0011984215816482902,-0.00013315795513335615,-0.0003994738799519837
1783081011358341000,5.849341064453125,0.00013315795513335615,-0.00013315795513335615,-0.0003994738799519837
1783081011378382600,5.869382568359375,0.00013315795513335615,-0.00013315795513335615,0.0006657897611148655
1783081011398039000,5.8890390625,0.00013315795513335615,-0.00013315795513335615,-0.0003994738799519837
1783081011418080500,5.90908056640625,0.00013315795513335615,0.0009321057004854083,-0.0003994738799519837
1783081011437737200,5.9287373046875,0.00013315795513335615,-0.00013315795513335615,-0.0003994738799519837
1783081011457586200,5.948586181640625,0.00013315795513335615,-0.00013315795513335615,-0.0003994738799519837
1783081011477627600,5.968627685546875,0.00013315795513335615,-0.00013315795513335615,-0.0003994738799519837
1783081011497284000,5.9882841796875,0.00013315795513335615,-0.00013315795513335615,0.0006657897611148655
1783081011517325600,6.00832568359375,-0.0009321057004854083,-0.00013315795513335615,-0.0003994738799519837
1783081011536982300,6.027982177734375,0.00013315795513335615,-0.00013315795513335615,-0.0003994738799519837
1783081011556831200,6.047831298828125,0.00013315795513335615,-0.00013315795513335615,-0.0003994738799519837
1783081011576872700,6.067872802734375,0.00013315795513335615,-0.0011984215816482902,-0.0003994738799519837
1783081011596529400,6.087529296875,-0.0009321057004854083,-0.00013315795513335615,-0.0003994738799519837
1783081011616571000,6.10757080078125,0.00013315795513335615,-0.00013315795513335615,-0.0003994738799519837
1783081011636420000,6.127420166015625,0.0011984215816482902,-0.00013315795513335615,-0.0003994738799519837
1783081011656076500,6.14707666015625,0.00013315795513335615,-0.00013315795513335615,0.0006657897611148655
1783081011676118000,6.167117919921875,-0.0009321057004854083,-0.00013315795513335615,-0.0003994738799519837
1783081011695774700,6.186774658203125,0.00013315795513335615,-0.00013315795513335615,-0.0003994738799519837
1783081011715816200,6.206816162109375,-0.0009321057004854083,-0.0011984215816482902,-0.001464737462811172
1783081011735472600,6.22647265625,0.00013315795513335615,-0.0011984215816482902,-0.001464737462811172
1783081011755514000,6.24651416015625,-0.0009321057004854083,-0.00013315795513335615,-0.0003994738799519837
1783081011775363300,6.26636328125,-0.0009321057004854083,-0.00013315795513335615,0.0006657897611148655
1783081011795212500,6.286212646484375,0.00013315795513335615,-0.00013315795513335615,0.0006657897611148655
1783081011815061800,6.306061767578125,0.00013315795513335615,-0.0011984215816482902,-0.0003994738799519837
1783081011834910700,6.32591064453125,0.00013315795513335615,-0.00013315795513335615,-0.0003994738799519837
1783081011854760000,6.345760009765625,0.00013315795513335615,-0.00013315795513335615,-0.0003994738799519837
1783081011874609000,6.36560888671875,0.0011984215816482902,-0.0011984215816482902,-0.0003994738799519837
1783081011894304000,6.385303955078125,0.00013315795513335615,0.0009321057004854083,-0.0003994738799519837
1783081011914306800,6.405306884765625,0.00013315795513335615,-0.00013315795513335615,-0.0003994738799519837
1783081011934156000,6.425156005859375,0.00013315795513335615,-0.00013315795513335615,-0.0003994738799519837
1783081011954005200,6.445005126953125,0.00013315795513335615,-0.00013315795513335615,0.0006657897611148655
1783081011973854200,6.464854248046875,0.00013315795513335615,-0.00013315795513335615,0.0006657897611148655
1783081011993703200,6.484703125,0.00013315795513335615,-0.00013315795513335615,-0.0003994738799519837
1783081012013552400,6.504552490234375,0.00013315795513335615,-0.00013315795513335615,-0.0003994738799519837
1783081012033401300,6.5244013671875,0.00013315795513335615,0.0009321057004854083,-0.0003994738799519837
1783081012053250600,6.54425048828125,0.00013315795513335615,-0.00013315795513335615,0.0006657897611148655
1783081012073099500,6.564099609375,0.00013315795513335615,-0.00013315795513335615,0.0006657897611148655
1783081012092948500,6.583948486328125,-0.0009321057004854083,-0.00013315795513335615,0.0006657897611148655
1783081012112797700,6.603797607421875,-0.0009321057004854083,-0.00013315795513335615,-0.0003994738799519837
1783081012132646700,6.623646728515625,-0.0009321057004854083,-0.00013315795513335615,-0.001464737462811172
1783081012152495600,6.64349560546875,-0.0009321057004854083,-0.00013315795513335615,-0.0003994738799519837
1783081012172344800,6.6633447265625,0.00013315795513335615,-0.00013315795513335615,-0.0003994738799519837
1783081012192193800,6.68319384765625,0.00013315795513335615,-0.0011984215816482902,-0.0003994738799519837
1783081012212042800,6.703042724609375,0.00013315795513335615,-0.00013315795513335615,-0.0003994738799519837
1783081012231892000,6.72289208984375,0.00013315795513335615,-0.0011984215816482902,0.0006657897611148655
1783081012251664000,6.742663818359375,-0.0009321057004854083,-0.0011984215816482902,-0.0003994738799519837
1783081012271590000,6.76258984375,-0.0009321057004854083,-0.00013315795513335615,-0.0003994738799519837
1783081012291438800,6.78243896484375,0.00013315795513335615,-0.00013315795513335615,-0.0003994738799519837
1783081012311288000,6.8022880859375,0.00013315795513335615,-0.00013315795513335615,0.0006657897611148655
1783081012331137000,6.822136962890625,0.00013315795513335615,-0.00013315795513335615,-0.0003994738799519837
1783081012350986200,6.841986328125,-0.0009321057004854083,-0.00013315795513335615,0.0006657897611148655
1783081012370835200,6.861835205078125,0.00013315795513335615,-0.00013315795513335615,0.0006657897611148655
1783081012390684200,6.88168408203125,0.00013315795513335615,-0.00013315795513335615,0.0006657897611148655
1783081012410533400,6.901533447265625,-0.0009321057004854083,-0.00013315795513335615,0.0006657897611148655
1783081012430382300,6.92138232421875,0.00013315795513335615,-0.00013315795513335615,0.0006657897611148655
1783081012450231300,6.941231201171875,-0.0009321057004854083,-0.00013315795513335615,-0.0003994738799519837
1783081012470080500,6.96108056640625,0.00013315795513335615,-0.00013315795513335615,-0.0003994738799519837
1783081012489929500,6.980929443359375,0.00013315795513335615,-0.0011984215816482902,-0.0003994738799519837
1783081012509778400,7.0007783203125,0.0011984215816482902,-0.00013315795513335615,-0.0003994738799519837
1783081012529627600,7.020627685546875,0.00013315795513335615,-0.00013315795513335615,-0.0003994738799519837
1783081012549476600,7.0404765625,0.00013315795513335615,-0.00013315795513335615,-0.0003994738799519837
1783081012569325600,7.06032568359375,0.0011984215816482902,0.0009321057004854083,-0.0003994738799519837
1783081012589174800,7.0801748046875,0.0011984215816482902,0.0009321057004854083,-0.0003994738799519837
1783081012608831500,7.09983154296875,0.00013315795513335615,-0.00013315795513335615,0.0006657897611148655
1783081012628680200,7.11968017578125,-0.0009321057004854083,-0.0011984215816482902,-0.0003994738799519837
1783081012648529000,7.13952880859375,-0.0009321057004854083,-0.0011984215816482902,-0.0003994738799519837
1783081012668570400,7.1595703125,0.00013315795513335615,0.0009321057004854083,-0.0003994738799519837
1783081012688419300,7.17941943359375,0.00013315795513335615,-0.00013315795513335615,-0.0003994738799519837
1783081012708076000,7.199075927734375,0.00013315795513335615,0.0009321057004854083,0.0006657897611148655
1783081012727925000,7.218925048828125,0.00013315795513335615,0.0009321057004854083,-0.0003994738799519837
1783081012747774000,7.23877392578125,0.00013315795513335615,0.01904158666729927,0.010253162123262882
1783081012767815400,7.2588154296875,-0.0009321057004854083,-0.0011984215816482902,0.0017310534603893757
1783081012787510500,7.278510498046875,0.00013315795513335615,-0.013981585390865803,-0.00892158318310976
