time,seconds_elapsed,z,y,x
1783080863298230500,0.13623046875,-10.928203582763672,-3.7067055702209473,2.1020517349243164
1783080863337919200,0.175919189453125,-8.611029624938965,-4.4176130294799805,2.797502279281616
1783080863357614800,0.19561474609375,-8.83128547668457,-4.851562023162842,2.4330573081970215
1783080863377464000,0.215464111328125,-7.746121406555176,-5.42022180557251,2.140836238861084
1783080863397313500,0.2353134765625,-5.976426124572754,-5.620038032531738,1.5313823223114014
1783080863417163000,0.2551630859375,-4.775290012359619,-5.197943687438965,1.3272137641906738
1783080863437166300,0.275166259765625,-2.7770776748657227,-3.611030340194702,0.5708303451538086
1783080863456862000,0.294862060546875,-1.500101089477539,-0.4300689697265625,-0.7232166528701782
1783080863476711200,0.314711181640625,1.0411200523376465,3.4403443336486816,-1.5960330963134766
1783080863496560600,0.334560546875,6.112117767333984,4.546411037445068,-0.07352742552757263
1783080863516564200,0.354564208984375,12.815226554870605,4.137005805969238,0.5390644073486328
1783080863536413700,0.37441357421875,14.111106872558594,4.249240398406982,-0.30500954389572144
1783080863556109300,0.394109375,12.063386917114258,6.135289192199707,-1.5491478443145752
1783080863576112600,0.414112548828125,11.872306823730469,6.941147804260254,-1.869792103767395
1783080863595769900,0.433769775390625,14.268128395080566,7.151546001434326,-1.6958839893341064
1783080863615811600,0.4538115234375,14.056116104125977,4.27980899810791,0.7980153560638428
1783080863635661000,0.4736611328125,6.195801734924316,3.0456600189208984,1.1592854261398315
1783080863655356700,0.493356689453125,-3.179389476776123,1.689490795135498,2.008007049560547
1783080863675206000,0.513205810546875,-8.233643531799316,-0.3874812126159668,2.264200210571289
1783080863695055400,0.533055419921875,-7.244977951049805,-1.5163373947143555,0.0871126651763916
1783080863715058700,0.55305859375,-3.536479949951172,-2.387141704559326,-1.9574193954467773
1783080863734908400,0.572908447265625,-1.910423755645752,-2.9749348163604736,-3.0747907161712646
1783080863754565400,0.5925654296875,-5.058966159820557,-3.628870964050293,-2.881742477416992
1783080863774414600,0.61241455078125,-8.77413272857666,-4.265494346618652,-1.9769642353057861
1783080863794264000,0.63226416015625,-9.78915023803711,-4.896883964538574,-1.291118860244751
1783080863814306000,0.65230615234375,-9.079516410827637,-5.885110378265381,-0.8199187517166138
1783080863834155500,0.672155517578125,-8.200026512145996,-6.751216888427734,-0.8427332043647766
1783080863853812500,0.6918125,-7.777449131011963,-7.009274959564209,-1.4806063175201416
1783080863873662000,0.711661865234375,-8.451805114746094,-6.96234130859375,-2.452033042907715
1783080863893511200,0.73151123046875,-8.385290145874023,-6.568169593811035,-3.4793269634246826
1783080863913553200,0.75155322265625,-6.803955078125,-5.973855972290039,-3.8590312004089355
1783080863933402600,0.771402587890625,-5.326654434204102,-4.778663635253906,-2.5395374298095703
1783080863953098200,0.79109814453125,-3.591507911682129,-2.4697325229644775,-0.22379779815673828
1783080863972947700,0.81094775390625,1.462362289428711,1.8996772766113281,2.321077585220337
1783080863992951000,0.830950927734375,5.686288356781006,8.484039306640625,2.6070706844329834
1783080864012800800,0.85080078125,8.649698257446289,15.717130661010742,1.772465467453003
1783080864032650200,0.870650146484375,17.47174072265625,18.720949172973633,3.354250907897949
1783080864052307500,0.890307373046875,27.49213409423828,14.90472412109375,5.6833882331848145
1783080864072156700,0.91015673828125,28.325422286987305,12.07595157623291,5.77532434463501
1783080864092006000,0.930005859375,20.84551239013672,10.193988800048828,5.290741920471191
1783080864112047600,0.950047607421875,10.017057418823242,8.34054183959961,3.4747109413146973
1783080864131704800,0.969704833984375,-0.1811075210571289,5.2306036949157715,2.2589640617370605
1783080864151554000,0.989553955078125,-4.964881420135498,0.4971027374267578,1.2549546957015991
1783080864171403500,1.009403564453125,-5.6731061935424805,-4.414600849151611,0.5420583486557007
1783080864191252700,1.029252685546875,-4.74242639541626,-7.304969787597656,-0.8698044419288635
1783080864211294700,1.049294677734375,-4.884859561920166,-7.779055595397949,-2.8870198726654053
1783080864230952000,1.068951904296875,-7.205685138702393,-6.558520793914795,-4.543240547180176
1783080864250994000,1.088993896484375,-10.00851058959961,-5.47330904006958,-5.504506587982178
1783080864270843400,1.108843505859375,-11.933509826660156,-4.941143035888672,-5.989774227142334
1783080864290539000,1.1285390625,-10.916326522827148,-5.823590278625488,-5.465755462646484
1783080864310542300,1.148542236328125,-8.332386016845703,-7.08829927444458,-4.4785919189453125
1783080864330391800,1.168391845703125,-7.453303337097168,-8.03718090057373,-4.024985313415527
1783080864350241500,1.188241455078125,-7.670898914337158,-7.645254135131836,-5.139767169952393
1783080864370091000,1.208091064453125,-7.646430969238281,-6.784264087677002,-6.3970232009887695
1783080864389940500,1.2279404296875,-7.245804309844971,-6.3095221519470215,-6.497735500335693
1783080864409790000,1.2477900390625,-6.228180885314941,-6.144538402557373,-5.455247402191162
1783080864429639400,1.267639404296875,-4.991545677185059,-5.857921600341797,-4.214585304260254
1783080864449489000,1.287489013671875,-3.4832448959350586,-4.99063777923584,-3.055441379547119
1783080864469338600,1.307338623046875,-0.3919672966003418,-2.2451717853546143,-1.4736131429672241
1783080864489187800,1.327187744140625,3.8823723793029785,3.7855348587036133,1.3662521839141846
1783080864509037300,1.347037353515625,8.192817687988281,10.20340633392334,3.576672077178955
1783080864528886800,1.36688671875,7.964249610900879,18.2325496673584,2.009941339492798
1783080864548736300,1.386736328125,13.738483428955078,19.955509185791016,4.1487860679626465
1783080864568585700,1.406585693359375,23.51870346069336,11.920303344726562,8.989774703979492
1783080864588435200,1.426435302734375,26.860443115234375,7.121716499328613,7.965054988861084
1783080864608284700,1.44628466796875,22.542640686035156,6.678542613983154,6.263822555541992
1783080864628134100,1.466134033203125,9.310108184814453,6.467733383178711,4.585464000701904
1783080864647983600,1.485983642578125,-4.110669136047363,4.509390354156494,3.2657673358917236
1783080864667833000,1.5058330078125,-10.766103744506836,0.8795409202575684,2.8335049152374268
1783080864687682600,1.5256826171875,-8.952655792236328,-3.2862987518310547,2.558915376663208
1783080864707532000,1.545531982421875,-4.5307393074035645,-5.703289985656738,-0.34800291061401367
1783080864727381500,1.565381591796875,-3.8907394409179688,-5.904529094696045,-3.8321220874786377
1783080864747231000,1.58523095703125,-6.423892021179199,-5.162903785705566,-6.188536643981934
1783080864767080400,1.60508056640625,-9.476336479187012,-4.49729061126709,-7.071760177612305
1783080864786930000,1.624929931640625,-10.70274829864502,-5.237614631652832,-6.255190372467041
1783080864806779100,1.644779052734375,-9.183666229248047,-6.2480082511901855,-4.628584384918213
1783080864826628900,1.66462890625,-8.444169044494629,-7.202385425567627,-3.56913161277771
1783080864846478000,1.68447802734375,-8.759025573730469,-7.0617218017578125,-4.075521945953369
1783080864866327600,1.70432763671875,-8.613182067871094,-6.256712436676025,-5.267204284667969
1783080864886177000,1.724177001953125,-7.369288921356201,-5.5854339599609375,-6.2917866706848145
1783080864906026500,1.744026611328125,-4.875696182250977,-5.251338005065918,-6.2768354415893555
1783080864925876000,1.7638759765625,-2.2008605003356934,-5.590295791625977,-4.938337802886963
1783080864945725400,1.783725341796875,1.6032118797302246,-5.3475341796875,-2.590719699859619
1783080864965575000,1.803574951171875,4.13927698135376,-3.1341476440429688,-1.2795379161834717
1783080864985424400,1.82342431640625,4.5827155113220215,2.8034887313842773,-0.5740522146224976
1783080865005273900,1.84327392578125,6.557557582855225,10.304838180541992,-0.4905001223087311
1783080865025123000,1.863123046875,9.696295738220215,18.178550720214844,-2.7225186824798584
1783080865044972500,1.88297265625,14.266069412231445,19.646591186523438,-0.6325784921646118
1783080865064822000,1.902822021484375,25.19291877746582,12.3693208694458,8.911818504333496
1783080865084671500,1.92267138671875,29.505596160888672,4.325660228729248,15.992124557495117
1783080865104521000,1.94252099609375,18.771236419677734,4.808136940002441,12.809691429138184
1783080865124370400,1.962370361328125,3.251863956451416,5.56395959854126,7.452021598815918
1783080865144104200,1.982104248046875,-5.21712589263916,2.920583724975586,3.2011754512786865
1783080865164069000,2.002069091796875,-6.434530735015869,-1.0817656517028809,0.22842776775360107
1783080865183918600,2.021918701171875,-5.61781120300293,-4.912711143493652,0.06290638446807861
1783080865203774000,2.04177392578125,-4.166125774383545,-6.702201843261719,-1.0581375360488892
1783080865223655700,2.06165576171875,-4.699834823608398,-6.314976692199707,-3.4188075065612793
1783080865243517000,2.081516845703125,-7.027667999267578,-5.63893461227417,-5.46047830581665
1783080865263315500,2.1013154296875,-9.60367202758789,-5.370765209197998,-6.583659648895264
1783080865283146000,2.12114599609375,-11.095524787902832,-5.778277397155762,-6.3363776206970215
1783080865302826800,2.14082666015625,-10.463447570800781,-6.379788398742676,-5.521535396575928
1783080865322867500,2.160867431640625,-8.412973403930664,-7.264438152313232,-4.423080921173096
1783080865342701000,2.180701171875,-6.230600833892822,-8.053966522216797,-3.6091513633728027
1783080865362414800,2.200414794921875,-4.710186004638672,-7.990431785583496,-3.80241060256958
1783080865382401500,2.220401611328125,-4.29869270324707,-6.948092460632324,-5.0711989402771
1783080865402115000,2.240114990234375,-3.84562349319458,-6.040688991546631,-5.808803081512451
1783080865422097700,2.26009765625,-3.2527387142181396,-5.54197359085083,-5.91018009185791
1783080865441757700,2.2797578125,-2.990931272506714,-4.806302547454834,-6.1619873046875
1783080865461609000,2.29960888671875,-3.8788819313049316,-3.8826189041137695,-3.8670949935913086
1783080865481460200,2.319460205078125,-3.8403587341308594,-1.35429048538208,-0.024114370346069336
1783080865501330400,2.339330322265625,0.18255996704101562,3.8733978271484375,4.733334541320801
1783080865521369600,2.35936962890625,4.242232799530029,11.202226638793945,6.408554553985596
1783080865541197800,2.37919775390625,10.305706024169922,19.26716423034668,3.137796640396118
1783080865560856800,2.39885693359375,19.52379608154297,22.6348819732666,3.845982551574707
1783080865580707800,2.418707763671875,27.626449584960938,16.506549835205078,9.300154685974121
1783080865600578000,2.438578125,26.803483963012695,8.157886505126953,14.321149826049805
1783080865620598000,2.458597900390625,18.22252655029297,5.124006748199463,12.229926109313965
1783080865640276000,2.47827587890625,6.8440704345703125,5.048181533813477,6.67780876159668
1783080865660296200,2.498296142578125,-6.096649169921875,3.9321341514587402,2.7851076126098633
1783080865679955000,2.517954833984375,-12.142281532287598,0.6960911750793457,1.975010871887207
1783080865699825200,2.5378251953125,-6.650721073150635,-4.919893264770508,3.7870898246765137
1783080865719864300,2.5578642578125,-0.40082836151123047,-7.261256217956543,-0.020295381546020508
1783080865739711500,2.57771142578125,-0.2549715042114258,-6.785862922668457,-6.991997718811035
1783080865759559400,2.597559326171875,-4.4692912101745605,-6.309070587158203,-10.375532150268555
1783080865779407400,2.617407470703125,-10.09191608428955,-6.968577861785889,-8.810491561889648
1783080865799255800,2.637255859375,-13.649860382080078,-7.943456649780273,-4.784213542938232
1783080865819104300,2.657104248046875,-13.40147590637207,-8.838855743408203,-1.8136183023452759
1783080865838953000,2.676952880859375,-9.939535140991211,-9.753467559814453,-1.6301140785217285
1783080865858802000,2.696802001953125,-5.926569938659668,-10.11520767211914,-3.3288495540618896
1783080865878651000,2.71665087890625,-3.114469289779663,-9.14629077911377,-4.883601188659668
1783080865898500000,2.7365,-2.964949131011963,-7.798295974731445,-5.116875648498535
1783080865918349300,2.756349365234375,-4.6428985595703125,-6.2184576988220215,-4.958554744720459
1783080865938198500,2.776198486328125,-7.288007736206055,-4.732771396636963,-5.075788497924805
1783080865958047700,2.7960478515625,-8.512045860290527,-4.036070823669434,-3.8644320964813232
1783080865977897000,2.81589697265625,-7.502089500427246,-3.2242250442504883,-3.2460241317749023
1783080865997746200,2.83574609375,-4.882552146911621,-2.3618991374969482,-2.1251919269561768
1783080866017595600,2.855595703125,0.2383880615234375,0.24110698699951172,2.2317955493927
1783080866037444900,2.87544482421875,7.692680358886719,6.2936320304870605,5.594540596008301
1783080866057286700,2.89528662109375,14.563507080078125,16.346134185791016,2.919559955596924
1783080866077068300,2.915068359375,19.113204956054688,21.358610153198242,4.593646049499512
1783080866096994300,2.934994384765625,23.103342056274414,19.415517807006836,7.221268177032471
1783080866116843500,2.954843505859375,25.979656219482422,14.895444869995117,7.456429481506348
1783080866136692700,2.974692626953125,21.888853073120117,9.241451263427734,7.276158332824707
1783080866156542000,2.9945419921875,11.018855094909668,6.813033580780029,3.6718733310699463
1783080866176383500,3.014383544921875,0.6958398818969727,4.9286675453186035,1.4223757982254028
1783080866196165400,3.034165283203125,-5.61422061920166,0.11131525039672852,2.567134141921997
1783080866216091100,3.054091064453125,-7.982109546661377,-4.918771743774414,3.6967852115631104
1783080866235940400,3.0739404296875,-6.697177410125732,-7.801977634429932,1.4892680644989014
1783080866255789600,3.09378955078125,-3.851816415786743,-8.422682762145996,-2.7274160385131836
1783080866275638800,3.113638671875,-3.8232791423797607,-7.527617454528809,-6.176546096801758
1783080866295488000,3.133488037109375,-7.767329692840576,-7.186801910400391,-6.425502777099609
1783080866315337200,3.153337158203125,-12.124248504638672,-7.568909168243408,-5.037430763244629
1783080866335186700,3.173186767578125,-14.325468063354492,-7.754194259643555,-3.317129611968994
1783080866355036000,3.193035888671875,-12.691904067993164,-7.911025047302246,-2.3644423484802246
1783080866374885400,3.212885498046875,-9.235372543334961,-8.433818817138672,-1.9883238077163696
1783080866394734800,3.23273486328125,-4.719132423400879,-8.145347595214844,-2.6620631217956543
1783080866414584300,3.252584228515625,-1.8959980010986328,-7.15639591217041,-3.5345864295959473
1783080866434433500,3.27243359375,-2.35976505279541,-5.943017482757568,-3.8720881938934326
1783080866454283000,3.292282958984375,-5.03609037399292,-4.73868465423584,-3.473822593688965
1783080866474132500,3.312132568359375,-7.919162750244141,-3.926215171813965,-2.435168743133545
1783080866493982000,3.33198193359375,-8.62856674194336,-2.905658721923828,-1.8175394535064697
1783080866513831200,3.3518310546875,-6.373530864715576,-1.3392481803894043,-1.7172666788101196
1783080866533661400,3.371661376953125,-1.655374526977539,0.2427997589111328,-1.1279253959655762
1783080866553342000,3.391342041015625,6.3751935958862305,3.992971420288086,-0.07155168056488037
1783080866573363500,3.411363525390625,12.162742614746094,11.820026397705078,-0.6901007294654846
1783080866593023700,3.431023681640625,15.63908863067627,17.295608520507812,-0.6003967523574829
1783080866612875500,3.45087548828125,23.012245178222656,15.345748901367188,0.9815008044242859
1783080866632726800,3.470726806640625,33.336647033691406,11.658514022827148,2.3156371116638184
1783080866652597200,3.49059716796875,33.34003829956055,9.47028923034668,2.0820043087005615
1783080866672617200,3.5106171875,21.811891555786133,6.75,3.865190029144287
1783080866692276000,3.53027587890625,6.447963714599609,6.030372619628906,3.8586573600769043
1783080866712146200,3.550146240234375,-6.7413554191589355,2.887176990509033,5.028059959411621
1783080866732166100,3.570166259765625,-10.772897720336914,-1.4282989501953125,4.412898063659668
1783080866751844400,3.58984423828125,-7.195149898529053,-6.474853038787842,1.6348274946212769
1783080866771864600,3.609864501953125,-1.6464405059814453,-8.754439353942871,-2.1922621726989746
1783080866791542800,3.629542724609375,-1.7142143249511719,-7.83765983581543,-4.420398712158203
1783080866811563000,3.64956298828125,-7.202648162841797,-6.718634605407715,-4.2829365730285645
1783080866831221800,3.6692216796875,-12.268128395080566,-5.9761128425598145,-2.7964460849761963
1783080866851088100,3.689088134765625,-14.434928894042969,-5.716907024383545,-1.1638844013214111
1783080866871074000,3.709073974609375,-13.064050674438477,-5.801057815551758,-0.4279821217060089
1783080866890771200,3.728771240234375,-10.419990539550781,-6.620218276977539,0.13102149963378906
1783080866910621700,3.74862158203125,-8.133694648742676,-6.745954513549805,0.17158055305480957
1783080866950562000,3.78856201171875,-7.153160572052002,-5.100639820098877,-1.7176222801208496
1783080866970412800,3.808412841796875,-8.582530975341797,-4.573024272918701,-1.9001131057739258
1783080866990217500,3.828217529296875,-10.179481506347656,-4.317764759063721,-2.099395275115967
1783080867010028500,3.848028564453125,-9.191595077514648,-3.760122776031494,-2.442506790161133
1783080867029916400,3.86791650390625,-5.413671493530273,-2.8219354152679443,-2.075434446334839
1783080867049766000,3.887765869140625,-2.1120691299438477,-0.5307888984680176,-2.037224054336548
1783080867069615400,3.907615478515625,1.093313217163086,3.1318764686584473,-1.1467760801315308
1783080867089464800,3.92746484375,7.420490264892578,8.00239372253418,2.225580930709839
1783080867109314300,3.947314208984375,13.85896110534668,13.868476867675781,0.5381853580474854
1783080867129163800,3.967163818359375,20.60488510131836,17.69632911682129,-4.232560157775879
1783080867149013000,3.987012939453125,29.891315460205078,16.210800170898438,-3.3688108921051025
1783080867168862700,4.00686279296875,32.68690490722656,10.414833068847656,2.7876760959625244
1783080867188712000,4.0267119140625,24.438499450683594,4.9772419929504395,7.006906986236572
1783080867208561400,4.0465615234375,11.591050148010254,5.537292957305908,5.43484354019165
1783080867228411000,4.066410888671875,-1.7120676040649414,4.805666923522949,4.301156044006348
1783080867248260400,4.08626025390625,-7.5915937423706055,1.3409819602966309,5.335725784301758
1783080867268109800,4.10610986328125,-4.9674224853515625,-3.3128881454467773,5.054206371307373
1783080867287959300,4.125959228515625,-3.058344841003418,-5.956705093383789,0.8401934504508972
1783080867307808800,4.145808837890625,-6.8570942878723145,-6.081202030181885,-3.553124189376831
1783080867327658200,4.165658203125,-12.276847839355469,-5.71388578414917,-4.447865962982178
1783080867347507500,4.185507568359375,-15.132386207580566,-6.595646381378174,-1.9581565856933594
1783080867367357000,4.20535693359375,-14.79538345336914,-7.88941764831543,-0.07045143842697144
1783080867387206400,4.225206298828125,-12.122962951660156,-8.390811920166016,-0.7597419619560242
1783080867407056000,4.245055908203125,-9.134799003601074,-7.930291652679443,-2.5104002952575684
1783080867426905300,4.2649052734375,-6.998023509979248,-7.055863380432129,-3.459197998046875
1783080867446754800,4.2847548828125,-5.991296768188477,-6.138317108154297,-2.820474624633789
1783080867466604000,4.30460400390625,-6.512418270111084,-5.472550868988037,-1.6344302892684937
1783080867486453500,4.32445361328125,-7.427914142608643,-4.844833850860596,-1.2064887285232544
1783080867506303000,4.344302978515625,-7.732076644897461,-4.2195353507995605,-1.218579649925232
1783080867526152400,4.36415234375,-6.3773956298828125,-3.701479196548462,-1.5698041915893555
1783080867546002000,4.384001953125,-4.357232093811035,-2.8408756256103516,-1.2661552429199219
1783080867565851400,4.403851318359375,-2.911508560180664,-1.348644733428955,-0.1628609299659729
1783080867585700600,4.42370068359375,-0.3352060317993164,1.0661430358886719,1.719470739364624
1783080867605550000,4.443550048828125,3.773935317993164,5.967354774475098,2.3462512493133545
1783080867625399600,4.463399658203125,6.901582717895508,14.342270851135254,0.38519614934921265
1783080867645249000,4.4832490234375,12.097543716430664,20.519977569580078,-2.2461318969726562
1783080867665098500,4.503098388671875,20.856502532958984,18.27691078186035,-2.0544276237487793
1783080867684948000,4.522947998046875,27.693775177001953,14.31640625,-1.2982165813446045
1783080867704797200,4.542797119140625,26.761611938476562,7.835638523101807,1.7994544506072998
1783080867724646700,4.562646728515625,16.368030548095703,4.119233131408691,2.400895833969116
1783080867744496000,4.58249609375,4.5776543617248535,2.8462376594543457,1.468700885772705
1783080867764345600,4.602345703125,-4.82423210144043,0.694951057434082,3.8016772270202637
1783080867784195000,4.622195068359375,-7.696760654449463,-1.6396479606628418,5.5512847900390625
1783080867803852000,4.64185205078125,-5.274487018585205,-4.9191155433654785,4.675553321838379
1783080867823701200,4.661701171875,-4.015795707702637,-6.8733110427856445,0.5917395353317261
1783080867843550500,4.681550537109375,-5.581415176391602,-6.800129413604736,-3.058278799057007
1783080867863592200,4.70159228515625,-8.035552978515625,-6.242739200592041,-4.055014610290527
1783080867883249200,4.721249267578125,-9.55614185333252,-6.2601423263549805,-2.613030433654785
1783080867903098400,4.741098388671875,-10.45496654510498,-6.901715278625488,-0.8601853251457214
1783080867923140400,4.761140380859375,-10.102766036987305,-7.966335773468018,0.3559104800224304
1783080867942797300,4.78079736328125,-8.854918479919434,-8.813335418701172,0.5556292533874512
1783080867962839000,4.800839111328125,-7.563483238220215,-8.897202491760254,-0.27552807331085205
1783080867982496000,4.82049609375,-7.443615913391113,-8.34115982055664,-1.122430443763733
1783080868002345500,4.840345458984375,-7.740964412689209,-7.668845176696777,-1.7067111730575562
1783080868022194700,4.860194580078125,-7.6565704345703125,-7.051401138305664,-2.115699052810669
1783080868042044000,4.8800439453125,-7.566217422485352,-6.511096477508545,-2.3805129528045654
1783080868062086000,4.9000859375,-7.757058143615723,-5.637905120849609,-2.7612059116363525
1783080868081743000,4.9197431640625,-7.481361389160156,-4.649614334106445,-2.005162239074707
1783080868101592300,4.93959228515625,-4.414664268493652,-2.154165506362915,-0.5538950562477112
1783080868121441800,4.95944189453125,2.6380906105041504,2.7734036445617676,1.0608763694763184
1783080868141291000,4.979291015625,11.205036163330078,11.719860076904297,-2.004849672317505
1783080868161333000,4.9993330078125,15.16357421875,22.174644470214844,-6.100704193115234
1783080868180990200,5.018990234375,23.451889038085938,22.86255645751953,-0.3558204770088196
1783080868201032000,5.039031982421875,32.24164581298828,14.635305404663086,9.008336067199707
1783080868220689200,5.058689208984375,32.500267028808594,9.641496658325195,9.009930610656738
1783080868240538400,5.078538330078125,21.655195236206055,9.090662002563477,3.809314012527466
1783080868260580400,5.098580322265625,7.701015472412109,9.979238510131836,-0.024592846632003784
1783080868280237300,5.1182373046875,-1.4476509094238281,5.097815036773682,3.015930414199829
1783080868300279000,5.138279052734375,-6.143407821655273,-0.8564295768737793,4.958082675933838
1783080868319936300,5.157936279296875,-9.250133514404297,-6.29324197769165,5.740818023681641
1783080868339978000,5.17797802734375,-9.48366928100586,-8.99725341796875,3.1560680866241455
1783080868359827700,5.19782763671875,-8.32789421081543,-9.640495300292969,-0.23577889800071716
1783080868379484700,5.217484619140625,-7.70884895324707,-8.99439525604248,-2.3963656425476074
1783080868399334000,5.237333984375,-8.926023483276367,-8.505911827087402,-3.7946088314056396
1783080868419183000,5.25718310546875,-10.553403854370117,-7.8205885887146,-4.410364627838135
1783080868439225000,5.27722509765625,-10.473670959472656,-8.454288482666016,-3.230292797088623
1783080868459074600,5.297074462890625,-8.763286590576172,-8.931661605834961,-2.259049415588379
1783080868478924300,5.31692431640625,-6.855312824249268,-9.275533676147461,-1.8857840299606323
1783080868498620000,5.336619873046875,-5.84693717956543,-9.159377098083496,-2.2293148040771484
1783080868518469000,5.35646923828125,-5.8547868728637695,-8.515884399414062,-3.0294604301452637
1783080868538472400,5.376472412109375,-5.986151695251465,-7.975260257720947,-3.3224246501922607
1783080868558129400,5.39612939453125,-6.017370223999023,-7.071440696716309,-2.993830442428589
1783080868577978600,5.415978515625,-6.541306495666504,-6.085028648376465,-2.4952645301818848
1783080868597828000,5.435828125,-5.921778678894043,-4.608636856079102,-2.010213613510132
1783080868617831400,5.45583154296875,-2.6534976959228516,-1.3664259910583496,-1.1068506240844727
1783080868637719600,5.475719482421875,2.311593532562256,4.395526885986328,-0.14791834354400635
1783080868657376500,5.49537646484375,8.983662605285645,12.296228408813477,0.07502937316894531
1783080868677225700,5.515225830078125,13.189223289489746,19.794673919677734,-2.25984263420105
1783080868697075200,5.5350751953125,16.014867782592773,22.618032455444336,-3.6006648540496826
1783080868716924400,5.55492431640625,22.077972412109375,19.426685333251953,-1.2982416152954102
1783080868736966400,5.57496630859375,24.36077880859375,13.475473403930664,1.4918609857559204
1783080868756816000,5.59481591796875,14.877751350402832,8.752904891967773,2.977168560028076
1783080868776473000,5.61447314453125,3.675596237182617,6.312317848205566,3.042192220687866
1783080868796322300,5.634322265625,-3.353137493133545,2.149362087249756,4.214183330535889
1783080868816171500,5.654171630859375,-6.185563087463379,-2.319011926651001,4.452179431915283
1783080868836174800,5.6741748046875,-5.203287124633789,-4.360418319702148,2.1879162788391113
1783080868855870500,5.693870361328125,-3.1051979064941406,-4.560863971710205,0.6089672446250916
1783080868875719700,5.7137197265625,-3.1281614303588867,-3.8528389930725098,0.6574440002441406
1783080868895761700,5.73376171875,-6.212273120880127,-3.35601544380188,0.8684688210487366
1783080868915418600,5.753418701171875,-10.570880889892578,-3.1110727787017822,0.3243858814239502
1783080868935460600,5.773460693359375,-13.04513931274414,-3.6490142345428467,0.0719735324382782
1783080868955117800,5.793117919921875,-10.816071510314941,-3.9830703735351562,-0.028456121683120728
1783080868974967000,5.812967041015625,-6.919732093811035,-4.5659074783325195,0.019145220518112183
1783080868994816300,5.832816162109375,-4.814301490783691,-4.983551979064941,-0.1543012410402298
1783080869014665700,5.852665771484375,-4.859629154205322,-5.319575786590576,-0.1482943594455719
1783080869034707700,5.872707763671875,-5.830493927001953,-5.921483993530273,0.5072803497314453
1783080869054364700,5.89236474609375,-5.844345569610596,-6.134467124938965,1.4630403518676758
1783080869074214000,5.9122138671875,-5.586024284362793,-6.135406494140625,1.9270188808441162
1783080869094063400,5.9320634765625,-5.397533893585205,-5.1691179275512695,0.4212324321269989
1783080869114105300,5.952105224609375,-3.8178505897521973,-4.369921684265137,-0.5799290537834167
1783080869133955000,5.971955078125,-1.204401969909668,-1.7123143672943115,-1.3064324855804443
1783080869153612000,5.991612060546875,0.6503787040710449,2.339639186859131,-2.359680414199829
1783080869173461200,6.011461181640625,1.916773796081543,6.910523414611816,-4.066371440887451
1783080869193310500,6.031310546875,4.736770153045654,8.151065826416016,-3.5455234050750732
1783080869213352400,6.0513525390625,12.257630348205566,6.399974346160889,-2.210310459136963
1783080869233009700,6.071009765625,21.17782211303711,4.078636169433594,-2.7795517444610596
1783080869252859000,6.09085888671875,24.407760620117188,2.7663192749023438,-3.141040802001953
1783080869272708000,6.1107080078125,19.0701961517334,2.867143154144287,-2.006909132003784
1783080869292557600,6.1305576171875,10.048388481140137,3.6305646896362305,-1.1317863464355469
1783080869312599600,6.150599609375,2.3485145568847656,3.0547432899475098,-0.7548299431800842
1783080869332479000,6.17047900390625,-1.7451086044311523,3.565237522125244,-0.6916756629943848
1783080869352313300,6.190313232421875,-2.9832115173339844,2.0943093299865723,1.7511991262435913
1783080869372196600,6.210196533203125,-4.309685230255127,0.3357810974121094,3.415719509124756
1783080869392004000,6.230004150390625,-6.192267894744873,-1.0618009567260742,2.5160820484161377
1783080869411852300,6.249852294921875,-6.387779235839844,-1.747267723083496,0.20307549834251404
1783080869431681500,6.269681640625,-5.205451488494873,-2.4513585567474365,-1.628184199333191
1783080869451361300,6.289361328125,-4.821208953857422,-2.8110191822052,-2.218747615814209
1783080869471382300,6.30938232421875,-5.493208885192871,-3.371333122253418,-1.9935799837112427
1783080869491041800,6.329041748046875,-6.63958215713501,-3.6506264209747314,-2.3179614543914795
1783080869510897200,6.348897216796875,-8.154831886291504,-4.059159278869629,-2.4656286239624023
1783080869530785800,6.368785888671875,-9.114303588867188,-4.508698463439941,-2.878206491470337
1783080869550651400,6.3886513671875,-8.401673316955566,-4.799615859985352,-3.824228286743164
1783080869570637000,6.408636962890625,-6.501197814941406,-5.058053493499756,-4.353234767913818
1783080869590349000,6.42834912109375,-4.930148124694824,-5.381190776824951,-3.5488789081573486
1783080869610331100,6.4483310546875,-3.756988525390625,-4.921158790588379,-3.0012729167938232
1783080869629990100,6.467990234375,-3.531893730163574,-3.6870338916778564,-2.3285648822784424
1783080869649860600,6.487860595703125,-2.914989471435547,-1.923799753189087,-1.0068683624267578
1783080869669880600,6.507880615234375,-0.49465274810791016,1.5067744255065918,0.16559919714927673
1783080869689539300,6.527539306640625,2.0045547485351562,4.249475002288818,2.7768702507019043
1783080869709390000,6.54739013671875,1.428685188293457,4.140678882598877,6.634167671203613
1783080869729260000,6.567260009765625,7.920327186584473,2.8942480087280273,12.034862518310547
1783080869749299000,6.587298828125,12.635037422180176,0.7921204566955566,7.430871963500977
1783080869769127000,6.607126953125,11.703317642211914,1.8699471950531006,4.504337310791016
1783080869788786000,6.626785888671875,8.081110000610352,3.6945061683654785,3.4909520149230957
1783080869808636700,6.64663671875,6.143705368041992,3.1900293827056885,-0.4554283320903778
1783080869828507000,6.6665068359375,5.370223045349121,2.937269926071167,-1.439432978630066
1783080869848526600,6.686526611328125,5.816596031188965,2.430403232574463,1.2583273649215698
1783080869868204500,6.70620458984375,5.747200012207031,1.253655195236206,2.4794106483459473
1783080869888224500,6.726224609375,2.557100296020508,0.1641988754272461,1.7517722845077515
1783080869907902700,6.74590283203125,-0.6109676361083984,-0.7720737457275391,2.526975631713867
1783080869927942100,6.765942138671875,-1.4088935852050781,-1.1400251388549805,0.487415075302124
1783080869947770400,6.785770263671875,-1.436999797821045,-1.0846788883209229,-0.8680462837219238
1783080869967429600,6.8054296875,-2.2355194091796875,-1.392266035079956,-0.10296750068664551
1783080869987280600,6.82528076171875,-3.756402015686035,-1.7257159948349,-0.2571829557418823
1783080870007150800,6.84515087890625,-4.296780586242676,-1.5783984661102295,-0.9343075752258301
1783080870027189800,6.865189697265625,-4.383208274841309,-0.945427656173706,-1.2914299964904785
1783080870047018000,6.88501806640625,-4.217038154602051,-0.5294585227966309,-1.567188024520874
1783080870066677200,6.90467724609375,-3.2647600173950195,-0.4629650115966797,-1.0155441761016846
1783080870086547500,6.92454736328125,-1.9124445915222168,-0.6195032596588135,-0.16377031803131104
1783080870106587000,6.9445869140625,-1.3250761032104492,-0.9232442378997803,0.4996401071548462
1783080870126434300,6.964434326171875,-0.9265408515930176,-0.8664379119873047,0.7984652519226074
1783080870146282200,6.9842822265625,-1.7076730728149414,-0.513343095779419,1.051769495010376
1783080870166114800,7.00411474609375,-0.3620138168334961,-0.17010283470153809,1.6247532367706299
1783080870185812500,7.0238125,2.341092109680176,0.08662128448486328,1.4472182989120483
