time,seconds_elapsed,z,y,x
1783080666872606700,0.078606689453125,-0.0282294861972332,-0.7339666485786438,0.1615206003189087
1783080666892303400,0.098303466796875,-0.025033695623278618,-0.5651223659515381,0.1514005959033966
1783080666912150000,0.11814990234375,0.04527370631694794,-0.27710169553756714,0.110521100461483
1783080666932161800,0.138161865234375,0.10865689069032669,0.014647374860942364,0.22809958457946777
1783080666952012000,0.158011962890625,0.01438105944544077,0.2644517123699188,0.38362807035446167
1783080666971704800,0.177704833984375,-0.02450106292963028,0.15579481422901154,0.22011010348796844
1783080666991541500,0.19754150390625,-0.08628635853528976,0.11957584321498871,-0.0822916179895401
1783080667011400700,0.217400634765625,-0.34980595111846924,0.4673844277858734,-0.11318425834178925
1783080667031274200,0.237274169921875,-0.6411555409431458,-0.012383690103888512,0.11478215456008911
1783080667051325700,0.25732568359375,-0.9249151349067688,-0.5109270811080933,0.4198470413684845
1783080667071103000,0.27710302734375,-0.9797762632369995,-1.1008168458938599,0.7691203355789185
1783080667090797300,0.29679736328125,-1.1725889444351196,-1.4257222414016724,0.8836361765861511
1783080667110615000,0.316614990234375,-1.4558159112930298,-1.907088279724121,0.5945502519607544
1783080667130500900,0.3365009765625,-1.6299865245819092,-2.2105553150177,0.19134798645973206
1783080667150333700,0.356333740234375,-0.9728519916534424,-0.6402234435081482,0.4539354741573334
1783080667170354700,0.376354736328125,0.3201117217540741,0.6062681674957275,0.8090677261352539
1783080667190014200,0.39601416015625,-0.12037479132413864,0.492418110370636,0.46512073278427124
1783080667209866000,0.415865966796875,-0.2619217038154602,0.591354489326477,0.670050859451294
1783080667229736700,0.43573681640625,-0.4882902204990387,0.110521100461483,0.9347688555717468
1783080667249776600,0.455776611328125,-0.6496776342391968,-0.5912213325500488,0.879375159740448
1783080667269624800,0.475624755859375,-0.4648544192314148,-1.311206340789795,0.14074796438217163
1783080667289473500,0.4954736328125,-0.5585976243019104,-1.0965557098388672,-0.32996541261672974
1783080667309303300,0.51530322265625,-0.7837677001953125,0.5684512853622437,-0.33848753571510315
1783080667328963800,0.5349638671875,-0.7258440256118774,1.2175962924957275,-0.33902016282081604
1783080667348835800,0.5548359375,-0.5165197253227234,0.8981503844261169,-0.32676962018013
1783080667368857000,0.574857177734375,-0.3039996027946472,0.492418110370636,-0.5301018357276917
1783080667388536600,0.59453662109375,-0.011717899702489376,-0.19773955643177032,-0.759133517742157
1783080667408558000,0.61455810546875,0.3977428078651428,-0.6258423924446106,-1.0359688997268677
1783080667428218000,0.634218017578125,0.8934898972511292,-0.27177539467811584,-0.901878833770752
1783080667448089600,0.654089599609375,0.7514103651046753,1.1174615621566772,-0.45500072836875916
1783080667468110600,0.674110595703125,0.17044217884540558,0.9434241056442261,-0.011451584286987782
1783080667487770400,0.693770263671875,0.11984215676784515,-0.40866175293922424,0.8857667446136475
1783080667507622000,0.713621826171875,0.11451584100723267,-0.4203796684741974,1.9267956018447876
1783080667527492900,0.733492919921875,0.030892645940184593,-0.11624689400196075,2.0295934677124023
1783080667547513600,0.753513671875,0.6470144987106323,0.2804306447505951,1.541835904121399
1783080667567192800,0.77319287109375,1.2162647247314453,0.14034847915172577,1.4912359714508057
1783080667607072300,0.813072265625,1.0655299425125122,-2.017343044281006,1.161137342453003
1783080667626922800,0.8329228515625,0.7013429403305054,-1.8719345331192017,0.0018642114009708166
1783080667646776300,0.8527763671875,0.5452818274497986,-0.7483476996421814,-1.307611107826233
1783080667666426000,0.872426025390625,0.20612850785255432,0.31558436155319214,-2.10522723197937
1783080667686276600,0.892276611328125,-0.4222438633441925,0.48549389839172363,-1.8779265880584717
1783080667706324500,0.912324462890625,-0.46272388100624084,0.05725792050361633,-0.3779022693634033
1783080667726218200,0.93221826171875,-0.17044217884540558,-0.48855653405189514,1.231311559677124
1783080667746092000,0.952092041015625,0,-1.0954904556274414,1.355414867401123
1783080667765876000,0.9718759765625,-0.3902859687805176,-0.7238466143608093,0.3079943358898163
1783080667785764900,0.991764892578125,-0.9137299060821533,-0.04966791719198227,-0.658466100692749
1783080667805633300,1.01163330078125,-1.212536334991455,0.4684496819972992,-0.7463503479957581
1783080667825427200,1.03142724609375,-1.2880369424819946,0.5195823311805725,-0.31558436155319214
1783080667845277700,1.051277587890625,-1.166197419166565,0.17496955394744873,0.2563290596008301
1783080667865128200,1.071128173828125,-0.8753803968429565,-0.13968269526958466,0.6217144727706909
1783080667885035800,1.091035888671875,-0.5735113024711609,-0.15086796879768372,0.5892239809036255
1783080667904901400,1.1109013671875,-0.2347574681043625,-0.06511423736810684,0.3266364634037018
1783080667924679400,1.130679443359375,0.03249054029583931,0.09028109163045883,0.23555642366409302
1783080667944577800,1.150577880859375,0.3094590902328491,0.16538217663764954,0.4486091434955597
1783080667964380400,1.17038037109375,0.4366249442100525,0.11371689289808273,0.7254445552825928
1783080667984231000,1.19023095703125,0.37324175238609314,-0.13435637950897217,0.8394277691841125
1783080668004081400,1.210081298828125,0.24074958264827728,-0.2962764501571655,0.7446193099021912
1783080668023931600,1.229931640625,0.17523586750030518,-0.5407544374465942,0.6291713118553162
1783080668043782100,1.2497822265625,0.13315795361995697,-1.155145287513733,0.7845667004585266
1783080668063632600,1.269632568359375,0.04953476041555405,-0.8500803709030151,1.3032169342041016
1783080668083483000,1.28948291015625,-0.10705899447202682,0.41891491413116455,1.5833812952041626
1783080668103333400,1.30933349609375,-0.01438105944544077,1.3486237525939941,1.3873727321624756
1783080668123030000,1.329030029296875,-0.5452818274497986,1.2761858701705933,1.3639369010925293
1783080668143034000,1.3490341796875,-1.417999029159546,-0.0906805694103241,0.1753690242767334
1783080668162884600,1.368884521484375,-1.529319167137146,0.9402283430099487,-1.864078164100647
1783080668182735000,1.388735107421875,-0.31145647168159485,1.6302528381347656,-2.1680777072906494
1783080668202393000,1.40839306640625,0.7072018980979919,-0.07789740711450577,0.42623862624168396
1783080668222435600,1.428435546875,1.0974878072738647,-2.3485069274902344,1.7218655347824097
1783080668242093600,1.448093505859375,1.2024163007736206,-2.6052353382110596,0.6716487407684326
1783080668262136300,1.46813623046875,0.6480797529220581,-1.44010329246521,-1.404017448425293
1783080668281988000,1.487988037109375,0.26525065302848816,0.060986343771219254,-2.5919196605682373
1783080668321494500,1.52749462890625,0.009587372653186321,0.17070849239826202,-0.12703268229961395
1783080668341537500,1.54753759765625,-0.00798947736620903,-0.22437115013599396,1.3202611207962036
1783080668361388000,1.567387939453125,-0.04048001766204834,-0.07097318768501282,1.3868401050567627
1783080668381046300,1.58704638671875,-0.2251701056957245,-0.023568958044052124,0.4352933466434479
1783080668400896500,1.606896484375,-0.42863544821739197,-0.008655266836285591,-0.5077312588691711
1783080668440790000,1.6467900390625,-0.6017407774925232,0.1201084777712822,-0.763927161693573
1783080668460640500,1.666640625,-0.64009028673172,0.23568958044052124,-0.2660495936870575
1783080668480298500,1.686298583984375,-0.5809681415557861,0.1723063886165619,0.3580617308616638
1783080668500341200,1.70634130859375,-0.39241650700569153,-0.047537390142679214,0.8314382433891296
1783080668519999200,1.725999267578125,-0.1315600574016571,-0.08908267319202423,1.0428930521011353
1783080668539849500,1.745849365234375,0.050600022077560425,-0.10293109714984894,1.1377015113830566
1783080668559892500,1.765892578125,0.046871598809957504,-0.22117535769939423,1.1792469024658203
1783080668579743000,1.785742919921875,-0.14966954290866852,-0.33302804827690125,1.1153310537338257
1783080668599401000,1.80540087890625,-0.4174501895904541,-0.4906870722770691,0.9539436101913452
1783080668619251200,1.825251220703125,-0.4643217921257019,-0.24301326274871826,0.7105308771133423
1783080668639294000,1.8452939453125,-0.3934817612171173,0.2623211741447449,0.5780386924743652
1783080668659144700,1.865144775390625,-0.38762280344963074,0.07856319099664688,0.6366282105445862
1783080668678802700,1.884802734375,-0.417982816696167,0.700543999671936,1.1126679182052612
1783080668698845400,1.904845458984375,-0.7189198136329651,2.1256003379821777,1.4427664279937744
1783080668718503400,1.92450341796875,-2.033588409423828,0.41465386748313904,-1.9343856573104858
1783080668738546200,1.944546142578125,-1.4808496236801147,1.324655294418335,-4.929108142852783
1783080668758396700,1.964396728515625,0.8849677443504333,2.8742144107818604,-2.6244101524353027
1783080668778055000,1.984054931640625,1.8840519189834595,-0.01504684891551733,2.4268038272857666
1783080668797905000,2.00390478515625,1.9090856313705444,-3.235072612762451,3.9081859588623047
1783080668817755400,2.02375537109375,1.7258602380752563,-2.1228041648864746,1.7632776498794556
1783080668837605600,2.043605712890625,1.5911043882369995,-0.3346259295940399,-0.4677838981151581
1783080668857457700,2.063457763671875,1.5847128629684448,-0.5141228437423706,-0.9050745964050293
1783080668877505800,2.083505859375,1.8041571378707886,-1.3990906476974487,0.23342590034008026
1783080668897355000,2.10335498046875,1.2040141820907593,-1.7547554969787598,1.3671327829360962
1783080668917204500,2.12320458984375,0.28069695830345154,-1.506682276725769,0.7052045464515686
1783080668937054200,2.14305419921875,-0.3514038324356079,-0.6173202991485596,-0.30972540378570557
1783080668956904000,2.162904052734375,-0.8748477697372437,-0.035819489508867264,-0.6265081763267517
1783080668976754000,2.18275390625,-0.9707214832305908,0.3257043659687042,-0.511992335319519
1783080668996604000,2.20260400390625,-0.9137299060821533,0.26338642835617065,-0.48323023319244385
1783080669016454000,2.222453857421875,-0.7848330140113831,0.12650005519390106,-0.591354489326477
1783080669036304100,2.24230419921875,-0.5117260217666626,0.2277000993490219,-0.6344976425170898
1783080669056154400,2.262154296875,-0.2438122183084488,0.3560643792152405,-0.47896915674209595
1783080669076004600,2.282004638671875,-0.09534109383821487,0.26338642835617065,-0.21331904828548431
1783080669095854800,2.301854736328125,-0.03568633273243904,0.2186453640460968,0.10519478470087051
1783080669135614200,2.3416142578125,-0.10972215235233307,0.14674006402492523,0.4768386483192444
1783080669155254000,2.36125390625,-0.22730062901973724,0.07217161357402802,0.6083986759185791
1783080669175255600,2.381255615234375,-0.3519364893436432,0.0018642114009708166,0.5940176248550415
1783080669195171300,2.40117138671875,-0.43502703309059143,-0.11837742477655411,0.4336954653263092
1783080669214956500,2.42095654296875,-0.25606274604797363,-0.0070573715493083,0.30426591634750366
1783080669234807000,2.44080712890625,-0.09001477807760239,0.49401602149009705,0.4848281145095825
1783080669254657500,2.460657470703125,-0.30666276812553406,0.450340211391449,0.6673876643180847
1783080669274315500,2.4803154296875,-0.7167892456054688,-0.8713856339454651,-0.6350302696228027
1783080669294165800,2.500165771484375,-1.2455594539642334,-0.2984069883823395,-2.7900586128234863
1783080669314208500,2.52020849609375,-0.28429222106933594,2.3273346424102783,-2.7943196296691895
1783080669334059000,2.54005908203125,1.2013510465621948,0.876845121383667,0.18815219402313232
1783080669353717000,2.559717041015625,1.0005488395690918,-1.6041538715362549,2.6068332195281982
1783080669373567200,2.579567138671875,1.0479531288146973,-0.5858950018882751,1.853292465209961
1783080669393455900,2.599455810546875,1.3339763879776,0.5211802124977112,0.08442214131355286
1783080669413460500,2.61946044921875,1.3377047777175903,-0.11145320534706116,-0.6771082282066345
1783080669433310700,2.639310791015625,1.145424723625183,-0.6210486888885498,-0.2761695981025696
1783080669452969000,2.658968994140625,0.4403533637523651,-0.44594597816467285,0.0822916179895401
1783080669473080600,2.67908056640625,-0.17683376371860504,0.0002663159102667123,-0.22184115648269653
1783080669492720600,2.698720703125,-0.29334697127342224,-0.0018642114009708166,-0.5977460741996765
1783080669512712400,2.71871240234375,-0.2480732649564743,-0.43635863065719604,-0.658466100692749
1783080669532370400,2.738370361328125,-0.296542763710022,-0.39907440543174744,-0.5785713195800781
1783080669552220700,2.758220703125,-0.47603967785835266,0.009321057237684727,-0.4853607416152954
1783080669572071000,2.77807080078125,-0.4866923391819,0.26338642835617065,-0.28309381008148193
1783080669591921400,2.79792138671875,-0.3103911876678467,0.16484954953193665,0.007723161485046148
1783080669611964200,2.817964111328125,-0.18535587191581726,-0.0997353047132492,0.23023010790348053
1783080669631622100,2.8376220703125,-0.11398320645093918,-0.24727432429790497,0.30373328924179077
1783080669651472600,2.85747265625,-0.09001477807760239,-0.14873743057250977,0.3218427896499634
1783080669671323000,2.877322998046875,-0.2059953510761261,-0.013448953628540039,0.3964112401008606
1783080669691173400,2.89717333984375,-0.5101281404495239,0.21118851006031036,0.5577986836433411
1783080669711216400,2.91721630859375,-0.572978675365448,0.6414218544960022,0.7158571481704712
1783080669730874400,2.936874267578125,-0.4451470375061035,0.7846998572349548,0.8751140832901001
1783080669750724600,2.956724609375,-0.45207124948501587,0.4109254479408264,0.9619330763816833
1783080669770574800,2.976574951171875,-0.47284388542175293,0.23462431132793427,0.9560741186141968
1783080669790425300,2.99642529296875,-0.2667153775691986,0.2644517123699188,0.9081372618675232
1783080669810468400,3.01646826171875,0.03195790946483612,0.08069372177124023,1.2483558654785156
1783080669830126300,3.036126220703125,0.046338967978954315,-0.623711884021759,1.645699143409729
1783080669849976600,3.0559765625,-0.6640587449073792,-1.0743184089660645,0.7265098094940186
1783080669869827000,3.0758271484375,-1.1773825883865356,0.4679170548915863,-0.5775060653686523
1783080669889677300,3.09567724609375,-0.35459962487220764,1.4231922626495361,-0.19254639744758606
1783080669909720300,3.11572021484375,0.3020022511482239,-0.32823434472084045,1.1542131900787354
1783080669929378300,3.13537841796875,-0.010120004415512085,-1.3261200189590454,1.3266527652740479
1783080669949228500,3.155228515625,0.320644348859787,-0.246209055185318,-0.1771000772714615
1783080669969271600,3.175271484375,0.6603302955627441,0.07110634446144104,-1.9109498262405396
1783080669988929500,3.194929443359375,0.7897598147392273,-0.22596904635429382,-2.293778896331787
1783080670008972500,3.21497265625,0.7018755674362183,-0.18229323625564575,-1.2394342422485352
1783080670028849200,3.23484912109375,0.13369058072566986,-0.4480765163898468,-0.54927659034729
1783080670048683000,3.25468310546875,-0.28322696685791016,-0.4491417706012726,-0.8912261724472046
1783080670068589600,3.274589599609375,-0.4467449486255646,-0.1567269116640091,-1.4668680429458618
1783080670108289800,3.314289794921875,-0.6118608117103577,0.29640960693359375,-0.9194557070732117
1783080670128077800,3.334077880859375,-0.7454182505607605,0.2878875136375427,-0.6472808122634888
1783080670147924000,3.353924072265625,-0.6246439814567566,0.16538217663764954,-0.5364934206008911
1783080670167721000,3.373720947265625,-0.3647196292877197,-0.055526867508888245,-0.39015281200408936
1783080670187440400,3.3934404296875,-0.2336922138929367,-0.114116370677948,-0.13235901296138763
1783080670207462700,3.413462646484375,-0.22357220947742462,-0.02197106182575226,0.1993374526500702
1783080670227143200,3.43314306640625,-0.2805638015270233,0.07483477145433426,0.5759081840515137
1783080670247165000,3.4531650390625,-0.41478702425956726,0.14514216780662537,0.8026761412620544
1783080670266845200,3.47284521484375,-0.5687175989151001,0.1898832470178604,0.8745814561843872
1783080670286888000,3.492887939453125,-0.727974534034729,0.1723063886165619,0.8639287948608398
1783080670306797000,3.512797119140625,-0.8551403880119324,0.44181808829307556,0.8868319988250732
1783080670326666800,3.532666748046875,-0.9254477620124817,0.6259755492210388,0.9598025679588318
1783080670346416400,3.55241650390625,-0.957405686378479,0.3129211962223053,0.9294425249099731
1783080670366096600,3.5720966796875,-0.7050713896751404,0.40506649017333984,0.8617982864379883
1783080670386139400,3.592139404296875,-0.37590491771698,1.5723291635513306,0.8676572442054749
1783080670406040600,3.61204052734375,-0.25126907229423523,1.972735047340393,1.2504863739013672
1783080670425908200,3.631908203125,-0.5207807421684265,-0.009720530360937119,0.5402218103408813
1783080670445667800,3.651667724609375,-0.4781702160835266,-0.7925561666488647,-1.4194637537002563
1783080670465325800,3.671325927734375,0.27483803033828735,1.0046768188476562,-1.7927055358886719
1783080670485449500,3.691449462890625,0.7684545516967773,0.9578051567077637,-0.036485280841588974
1783080670505314800,3.711314697265625,0.7743135094642639,-0.7115961313247681,0.9704551696777344
1783080670525087500,3.73108740234375,1.1811110973358154,-1.0492846965789795,0.2637858986854553
1783080670544918000,3.75091796875,1.3132038116455078,-0.7989477515220642,-0.6313018798828125
1783080670564579300,3.770579345703125,0.7753787636756897,-0.31971225142478943,-1.2383689880371094
1783080670584432000,3.79043212890625,0.48988813161849976,0.08815056830644608,-0.8773777484893799
1783080670604304100,3.81030419921875,0.5250418186187744,-0.3958786129951477,-0.03275685757398605
1783080670624344600,3.830344482421875,0.6768419146537781,-0.9491499066352844,0.2563290596008301
1783080670644193300,3.850193359375,0.6555365920066833,-0.9890972971916199,-0.007190529722720385
1783080670664023000,3.87002294921875,0.42384177446365356,-0.7270424365997314,-0.3081275224685669
1783080670683683800,3.889683837890625,0.15819165110588074,-0.34794172644615173,-0.41358861327171326
1783080670703555800,3.909555908203125,-0.02396843209862709,-0.01504684891551733,-0.18775272369384766
1783080670723596300,3.92959619140625,-0.0708400309085846,0.03861580789089203,0.2174469381570816
1783080670743425800,3.94942578125,-0.1038632020354271,-0.02143843099474907,0.4848281145095825
1783080670763086300,3.96908642578125,-0.1406148076057434,0.048735812306404114,0.5375586748123169
1783080670782938400,3.9889384765625,-0.18162745237350464,0.24794010818004608,0.5018723607063293
1783080670802809900,4.008809814453125,-0.18535587191581726,0.36298859119415283,0.5071986317634583
1783080670822834700,4.028834716796875,-0.15180006623268127,0.35659700632095337,0.6366282105445862
1783080670842528300,4.0485283203125,-0.16564849019050598,0.280963271856308,0.7669898271560669
1783080670862341600,4.068341552734375,-0.21771325170993805,0.26818013191223145,0.8223835229873657
1783080670882193200,4.088193115234375,-0.2821617126464844,0.3731085956096649,0.77870774269104
1783080670902064000,4.108064208984375,-0.31731539964675903,0.47058022022247314,0.6414218544960022
1783080670922084600,4.128084716796875,-0.1693769246339798,0.8651272058486938,0.6440850496292114
1783080670941744000,4.147744140625,0.2780338227748871,1.2175962924957275,0.9645962119102478
1783080670961614800,4.16761474609375,0.33609068393707275,0.8209187984466553,1.3426316976547241
1783080670981635600,4.187635498046875,-0.050600022077560425,-0.4059986174106598,0.6472808122634888
1783080671001314600,4.207314453125,-0.2992059290409088,-0.6380929350852966,-1.2000194787979126
1783080671021335600,4.22733544921875,0.019174745306372643,1.4753901958465576,-2.219210386276245
1783080671040999000,4.2469990234375,0.6177197694778442,1.44609534740448,-1.391766905784607
1783080671060904000,4.266904052734375,1.024517297744751,-1.4608758687973022,0.06311687082052231
1783080671080890000,4.28689013671875,0.8451535701751709,-2.035985231399536,0.32876700162887573
1783080671120596000,4.326595947265625,0.46645233035087585,-0.565654993057251,-0.23835274577140808
1783080671140508400,4.34650830078125,0.42384177446365356,-0.8213182687759399,-1.004543662071228
1783080671160297000,4.366296875,0.47976812720298767,-0.5402218103408813,-1.06419837474823
1783080671179955000,4.385954833984375,0.23755379021167755,-0.6865624189376831,-0.17283903062343597
1783080671199997400,4.40599755859375,-0.23742063343524933,-0.9981520175933838,0.21425114572048187
1783080671219848000,4.425847900390625,-0.5862944722175598,-0.9592698812484741,-0.21012325584888458
1783080671239698400,4.445698486328125,-0.7757782340049744,-0.5672528743743896,-0.7612640261650085
1783080671259587600,4.465587646484375,-0.8594014644622803,-0.20892482995986938,-0.797482967376709
1783080671279451400,4.485451416015625,-0.7322356104850769,-0.04913528636097908,-0.4203796684741974
1783080671299056600,4.505056640625,-0.5649892091751099,-0.11038794368505478,-0.07643266767263412
1783080671319142100,4.52514208984375,-0.3748396337032318,-0.22117535769939423,0.09614004194736481
1783080671338755300,4.54475537109375,-0.2480732649564743,-0.20466378331184387,0.2227732539176941
1783080671358800400,4.56480029296875,-0.2390185296535492,-0.07789740711450577,0.2824280261993408
1783080671378458400,4.584458251953125,-0.28748801350593567,0.06578002870082855,0.3250385820865631
1783080671398308600,4.60430859375,-0.3274354040622711,0.08442214131355286,0.42251017689704895
1783080671418159000,4.6241591796875,-0.30719539523124695,0.040213704109191895,0.5647228956222534
1783080671438009300,4.64400927734375,-0.23742063343524933,0.060986343771219254,0.7190529704093933
1783080671458052400,4.66405224609375,-0.19747324287891388,0.1153147891163826,0.7637940049171448
1783080671477964500,4.683964599609375,-0.18002955615520477,0.2793653905391693,0.5849629044532776
1783080671517491500,4.723491455078125,0.3434143662452698,0.9785777926445007,0.3213101327419281
1783080671537504000,4.74350390625,0.8126630187034607,1.7708675861358643,0.45979443192481995
1783080671557395200,4.763395263671875,0.7759113907814026,1.8129456043243408,0.4342280924320221
1783080671577035300,4.78303515625,0.17789903283119202,0.45619916915893555,-0.7111966609954834
1783080671596812000,4.80281201171875,-0.09587372839450836,0.8076030015945435,-2.2378525733947754
1783080671616662500,4.82266259765625,0.5090628862380981,2.488722085952759,-2.468482255935669
1783080671636705500,4.84270556640625,1.230645775794983,1.8704698085784912,-1.3848427534103394
1783080671656363500,4.862363525390625,0.9755151867866516,-0.12636689841747284,-0.5700492262840271
1783080671676466200,4.882466064453125,0.7412903308868408,-0.20732693374156952,-0.4013380706310272
1783080671696356900,4.90235693359375,0.3886880576610565,0.3683148920536041,-0.19148114323616028
1783080671716107800,4.922107666015625,0.505867063999176,0.3656517565250397,-0.8603335618972778
1783080671735958300,4.941958251953125,0.7167892456054688,0.6627271175384521,-1.4215943813323975
1783080671755616300,4.9616162109375,0.5825660824775696,0.6483460664749146,-0.7783082723617554
1783080671775659000,4.981658935546875,0.6395576596260071,0.06311687082052231,0.0732368752360344
1783080671795317000,5.00131689453125,0.6842987537384033,-0.24461115896701813,0.503470242023468
1783080671815359700,5.02135986328125,0.664591372013092,-0.22863221168518066,0.2685796022415161
1783080671835210200,5.041210205078125,0.47124600410461426,0.023169483989477158,-0.011451584286987782
1783080671855102500,5.0611025390625,0.20985694229602814,0.21225377917289734,0.19294588267803192
1783080671874974700,5.080974609375,0,0.37151068449020386,0.3996070325374603
1783080671894614800,5.10061474609375,-0.23688800632953644,0.4716454744338989,0.30053749680519104
1783080671914611500,5.120611572265625,-0.19068218767642975,0.5338302254676819,0.20999009907245636
1783080671934462200,5.140462158203125,-0.03621896356344223,0.39974018931388855,0.22011010348796844
1783080671954120000,5.160119873046875,-0.08841688185930252,-0.031558435410261154,0.11851058155298233
1783080671974215700,5.180215576171875,-0.19068218767642975,-0.24727432429790497,-0.18189376592636108
1783080671994094300,5.20009423828125,-0.252334326505661,-0.42144492268562317,-0.25486433506011963
1783080672013864000,5.219864013671875,-0.1688442826271057,-0.3117227852344513,0.1423458606004715
1783080672033729000,5.23972900390625,0.0021305272821336985,-0.12583427131175995,0.5141228437423706
1783080672073183700,5.279183837890625,0.2530001103878021,-0.6849645376205444,0.875646710395813
1783080672093111000,5.299111083984375,0.38282912969589233,-0.1237037405371666,0.7163897752761841
1783080672113115600,5.31911572265625,0.7322356104850769,0.19254639744758606,0.6174534559249878
1783080672132966100,5.338966064453125,0.6640587449073792,-0.7526087760925293,-0.32517173886299133
1783080672152872400,5.35887255859375,-0.1267663687467575,-0.4342280924320221,-0.8965525031089783
1783080672172753000,5.3787529296875,-0.3466101586818695,0.6355628967285156,-0.3400854170322418
1783080672192392700,5.398392822265625,-0.24114905297756195,0.09241162240505219,-0.17550218105316162
1783080672212367400,5.418367431640625,-0.2763027548789978,-0.2744385600090027,-0.00985368900001049
1783080672232025300,5.438025390625,0.0798947736620903,-0.32823434472084045,0.1796300858259201
1783080672251875800,5.457875732421875,0.4121238589286804,-0.687095046043396,-0.04660528525710106
1783080672271726000,5.47772607421875,0.3561975359916687,-0.17749954760074615,-0.600409209728241
1783080672291576300,5.497576416015625,0.0031957910396158695,1.036102056503296,-0.8496809005737305
1783080672311619300,5.517619384765625,-0.058589499443769455,0.7671229839324951,-0.22184115648269653
1783080672331277300,5.53727734375,0.2503369450569153,-0.6263750195503235,0.5407544374465942
1783080672351127800,5.5571279296875,0.7966840267181396,-1.068459391593933,0.9938910007476807
1783080672370978000,5.57697802734375,0.5793702602386475,-0.8271772265434265,0.833568811416626
1783080672390828300,5.596828369140625,0.18642114102840424,-0.2083922028541565,0.14820480346679688
1783080672410871600,5.61687158203125,0.245010644197464,0.4082622826099396,-0.34434646368026733
1783080672430529500,5.636529541015625,0.13954953849315643,0.809733510017395,-0.3304980397224426
1783080672450379800,5.6563798828125,0.17204007506370544,0.8938893675804138,-0.21758009493350983
1783080672470422800,5.6764228515625,0.44354915618896484,0.5684512853622437,0.03808317333459854
1783080672490080800,5.696080810546875,0.5500755310058594,0.29747486114501953,0.4768386483192444
1783080672510123500,5.71612353515625,0.4866923391819,0.22929799556732178,0.7856319546699524
1783080672529974000,5.73597412109375,0.45633232593536377,0.25007063150405884,0.745151937007904
1783080672549632300,5.75563232421875,0.40040597319602966,0.529702365398407,0.5029376149177551
1783080672569482500,5.775482421875,0.3105243444442749,0.4530033767223358,0.5269060134887695
1783080672589332700,5.795332763671875,0.35513225197792053,0.0354200154542923,0.46512073278427124
1783080672609375500,5.81537548828125,0.31798118352890015,0.029028434306383133,0.38948702812194824
1783080672629226200,5.835226318359375,0.23435799777507782,0.040213704109191895,0.5274386405944824
1783080672648884200,5.85488427734375,0.2119874656200409,-0.1093226820230484,0.5817670822143555
1783080672668734500,5.874734375,0.3020022511482239,0.24634221196174622,0.6115944981575012
1783080672688584700,5.894584716796875,0.3934817612171173,0.11744531989097595,0.1934785097837448
1783080672708627700,5.914627685546875,0.10279794037342072,-0.565654993057251,-0.7958850860595703
1783080672728285700,5.93428564453125,-0.2869553864002228,0.3837612271308899,-1.35714590549469
1783080672748328400,5.954328369140625,-0.14221268892288208,1.023318886756897,-1.4018869400024414
1783080672768212500,5.97421240234375,-0.09960214793682098,0.37577176094055176,-0.6057355403900146
1783080672807964200,6.013964111328125,0.13315795361995697,-0.8069372177124023,-0.29587697982788086
1783080672827730400,6.03373046875,0.26631590723991394,-0.35167014598846436,-0.25912538170814514
1783080672847579000,6.053578857421875,0.3334275186061859,0.17070849239826202,-0.1861548274755478
1783080672867232000,6.07323193359375,0.14913691580295563,0.32890015840530396,0.13542163372039795
1783080672887103000,6.09310302734375,0.05592634156346321,-0.19667430222034454,0.5572660565376282
1783080672907143200,6.11314306640625,0.16245271265506744,-0.4821649491786957,0.678572952747345
1783080672926991400,6.132991455078125,0.2769685387611389,-0.5448823571205139,0.7558045387268066
1783080672946820900,6.15282080078125,0.33129698038101196,-0.2781669795513153,0.6201165914535522
1783080672966478800,6.172478759765625,0.19228008389472961,0.11478215456008911,0.3346259295940399
1783080672986613000,6.192613037109375,-0.02450106292963028,0.31984540820121765,0.1418132185935974
1783080673006453500,6.21245361328125,-0.15446323156356812,0.2836264371871948,0.08548741042613983
1783080673026318300,6.232318359375,-0.1406148076057434,0.18029586970806122,0.14554163813591003
1783080673046069200,6.2520693359375,-0.09960214793682098,0.16804534196853638,0.24248063564300537
1783080673065750000,6.27175,-0.09161267429590225,0.1808284968137741,0.20466378331184387
1783080673105689300,6.311689453125,-0.025566328316926956,0.24421168863773346,0.18176060914993286
1783080673125554700,6.3315546875,0.062317922711372375,0.10785794258117676,0.4091944098472595
1783080673145325600,6.35132568359375,0.2024000883102417,-0.016112113371491432,0.5727123618125916
1783080673165039900,6.371039794921875,0.2396843135356903,0.06524740159511566,0.46938177943229675
1783080673185027300,6.39102734375,0.3004043400287628,0.22024326026439667,0.5301018357276917
1783080673204741600,6.41074169921875,0.5277049541473389,0.24314641952514648,0.720650851726532
1783080673224744400,6.430744384765625,0.7210503220558167,0.3544664680957794,0.5684512853622437
1783080673244574500,6.450574462890625,0.497344970703125,0.29640960693359375,-0.4209122955799103
1783080673264255000,6.4702548828125,-0.16724638640880585,0.5567334294319153,-1.9232003688812256
1783080673284276700,6.49027685546875,-0.4174501895904541,1.5936343669891357,-1.9668761491775513
1783080673303956700,6.509956787109375,-0.47284388542175293,0.6536723971366882,-1.089232087135315
1783080673323997700,6.529997802734375,-0.6592650413513184,-0.5667202472686768,-0.7239798307418823
1783080673343827500,6.549827392578125,-0.35353437066078186,-0.7994803786277771,-0.3928159773349762
1783080673363488300,6.56948828125,-0.06498108059167862,-0.7036066055297852,0.30533120036125183
1783080673383340500,6.589340576171875,0.038882121443748474,-0.3585943877696991,0.41718387603759766
1783080673403212000,6.6092119140625,-0.3327617347240448,0.1525990217924118,-0.023169483989477158
1783080673423252200,6.629252197265625,-0.4398207366466522,0.0050600022077560425,0.08175898343324661
1783080673443081500,6.64908154296875,-0.37590491771698,-0.6098634600639343,0.367649108171463
1783080673462761200,6.66876123046875,-0.20759324729442596,-0.7984151244163513,0.47896915674209595
1783080673482804000,6.688803955078125,-0.0015978955198079348,-0.6386255621910095,0.33728909492492676
1783080673502688500,6.7086884765625,0.03142527863383293,-0.4390217661857605,-0.1952095627784729
1783080673522540800,6.728540771484375,-0.07563371956348419,-0.20146799087524414,-0.4480765163898468
1783080673542394400,6.748394287109375,-0.022903168573975563,0.08282424509525299,-0.3139864504337311
1783080673562237200,6.7682373046875,0.13422322273254395,0.08495477586984634,-0.040746334940195084
1783080673582132200,6.78813232421875,0.267913818359375,-0.05819002538919449,0.23768694698810577
1783080673601972500,6.807972412109375,0.3307643532752991,-0.1093226820230484,0.2930806577205658
1783080673621841200,6.827841064453125,0.3195790946483612,0.017310533672571182,0.3069290816783905
1783080673641481200,6.847481201171875,0.24607589840888977,0.03914843872189522,0.466185986995697
1783080673661273300,6.8672734375,0.1310274302959442,0.15100112557411194,0.4986765384674072
1783080673681297200,6.887297119140625,0.038882121443748474,0.14940322935581207,0.44061967730522156
1783080673701009000,6.9070087890625,-0.042610544711351395,0.15579481422901154,0.4065312445163727
