time,seconds_elapsed,z,y,x
1783079945134134300,0.09713427734375,0.11367416381835938,-0.0029238462448120117,-0.00824400782585144
1783079945153973800,0.116973876953125,0.1235208511352539,-0.048816949129104614,0.018314823508262634
1783079945193486000,0.156486083984375,0.057041168212890625,0.016214817762374878,0.013542503118515015
1783079945213489700,0.17648974609375,0.013640403747558594,0.03363478183746338,0.07710020989179611
1783079945233339400,0.19633935546875,-0.030602455139160156,0.04391482472419739,0.0665106475353241
1783079945253035000,0.216034912109375,-0.11744022369384766,0.0551990270614624,0.033796459436416626
1783079945272884500,0.235884521484375,-0.08808326721191406,0.02824285626411438,0.02801688015460968
1783079945292734000,0.25573388671875,-0.0945281982421875,-0.01078498363494873,-0.003992035984992981
1783079945312737300,0.2757373046875,0.0010557174682617188,-0.003691732883453369,-0.03860904276371002
1783079945332433000,0.295432861328125,0.10482215881347656,-0.011810660362243652,-0.08129218220710754
1783079945352282400,0.315282470703125,0.14261913299560547,-0.04554739594459534,-0.050208091735839844
1783079945372131800,0.3351318359375,0.2164907455444336,-0.027302205562591553,-0.03845362365245819
1783079945391981300,0.354981201171875,0.13092422485351562,-0.006134599447250366,-0.006679311394691467
1783079945411985000,0.37498486328125,-0.044071197509765625,0.02997612953186035,0.05856901407241821
1783079945431641900,0.394641845703125,-0.18550777435302734,0.04665428400039673,0.02687762677669525
1783079945451683800,0.414683837890625,-0.1513662338256836,0.04841881990432739,-0.02890828251838684
1783079945471379500,0.43437939453125,-0.1257486343383789,0.04704767465591431,0.026371434330940247
1783079945491228700,0.454228759765625,-0.029311180114746094,0.023242264986038208,0.06930387020111084
1783079945511232500,0.474232421875,0.07341480255126953,-0.01818963885307312,0.0034909844398498535
1783079945531082000,0.49408203125,0.07562637329101562,-0.0015955567359924316,-0.056710124015808105
1783079945550931700,0.513931640625,0.024636268615722656,-0.052619725465774536,0.00984528660774231
1783079945570588700,0.533588623046875,0.06324577331542969,-0.027164161205291748,-0.011148765683174133
1783079945590438100,0.553438232421875,0.061130523681640625,-0.0553244948387146,-0.05493013560771942
1783079945610479900,0.57347998046875,0.029114723205566406,-0.055131763219833374,-0.08617909252643585
1783079945630136800,0.59313671875,-0.05017280578613281,-0.03326284885406494,-0.004337772727012634
1783079945650178800,0.6131787109375,-0.09664440155029297,0.0063713788986206055,0.0199308842420578
1783079945670028500,0.633028564453125,-0.08170890808105469,0.03820124268531799,0.007063314318656921
1783079945689878300,0.652878173828125,-0.032825469970703125,0.010866641998291016,-0.016309484839439392
1783079945709727700,0.672727783203125,0.03985118865966797,0.008540540933609009,0.0185261070728302
1783079945729577200,0.6925771484375,0.06387901306152344,0.013761520385742188,0.036854326725006104
1783079945749427000,0.712427001953125,0.07107734680175781,0.002681940793991089,0.033498555421829224
1783079945769276400,0.7322763671875,0.038857460021972656,-0.014049500226974487,-0.016815781593322754
1783079945789126000,0.7521259765625,0.021657943725585938,-0.005703955888748169,0.0022792667150497437
1783079945808975600,0.7719755859375,-0.03668975830078125,-0.02803051471710205,0.02244505286216736
1783079945828825000,0.7918251953125,-0.026136398315429688,-0.0321103036403656,-0.01259814202785492
1783079945848674600,0.811674560546875,-0.07378578186035156,-0.045445799827575684,-0.032572150230407715
1783079945868524000,0.83152392578125,-0.10355472564697266,-0.007333695888519287,-0.055148690938949585
1783079945888373500,0.85137353515625,-0.1485729217529297,0.01933819055557251,0.0020060986280441284
1783079945908223000,0.871222900390625,-0.09286022186279297,0.02841860055923462,-0.03939396142959595
1783079945928072400,0.891072509765625,0.06010150909423828,0.018744677305221558,-0.03424204885959625
1783079945947922200,0.910922119140625,0.13159656524658203,-0.029702752828598022,0.01425999402999878
1783079945967771600,0.930771728515625,0.18727493286132812,-0.008405983448028564,0.032493531703948975
1783079945987621000,0.95062109375,0.16048431396484375,0.008727878332138062,0.011600732803344727
1783079946007470600,0.970470703125,0.0029458999633789062,0.0061296820640563965,0.03892676532268524
1783079946027320000,0.990320068359375,-0.12391281127929688,0.022556185722351074,0.060974493622779846
1783079946047169500,1.01016943359375,-0.1381092071533203,0.043551862239837646,0.046961694955825806
1783079946067019000,1.03001904296875,-0.02965831756591797,0.035257577896118164,-0.011219412088394165
1783079946086868500,1.049868408203125,0.03117084503173828,-0.04048892855644226,0.01433303952217102
1783079946106718000,1.069718017578125,0.053234100341796875,-0.012464284896850586,0.005721688270568848
1783079946126567400,1.0895673828125,0.01927947998046875,0.003184974193572998,-0.019265785813331604
1783079946146417000,1.1094169921875,-0.0066661834716796875,0.015888690948486328,-0.07050231099128723
1783079946166266400,1.129266357421875,-0.02722644805908203,-0.02109616994857788,-0.035650834441185
1783079946186115800,1.14911572265625,0.010677337646484375,0.014577209949493408,0.029193878173828125
1783079946205965300,1.16896533203125,0.028802871704101562,0.022545278072357178,0.035157784819602966
1783079946225815000,1.18881494140625,0.04181861877441406,0.012655675411224365,-0.051221758127212524
1783079946245664500,1.20866455078125,0.02682209014892578,0.024766981601715088,-0.037712737917900085
1783079946265514000,1.228513916015625,-0.045493125915527344,0.03176236152648926,0.019562602043151855
1783079946285363500,1.248363525390625,-0.076202392578125,0.0637366771697998,0.03111906349658966
1783079946305213000,1.268212890625,-0.041367530822753906,0.024409949779510498,-0.01129518449306488
1783079946325062400,1.2880625,0.027017593383789062,0.028180301189422607,0.0025507956743240356
1783079946344912000,1.307911865234375,0.07935428619384766,0.012309670448303223,0.03606012463569641
1783079946364761300,1.32776123046875,0.0005178451538085938,-0.0036524534225463867,0.024366408586502075
1783079946384610800,1.34761083984375,-0.017728805541992188,-0.0071868896484375,-0.05209822952747345
1783079946404460300,1.367460205078125,-0.04011726379394531,-0.02639073133468628,-0.04854904115200043
1783079946424271400,1.387271240234375,-0.08266925811767578,-0.021148324012756348,0.03980515897274017
1783079946443967000,1.406967041015625,-0.05907154083251953,-0.026529967784881592,0.025047630071640015
1783079946464008400,1.427008544921875,-0.1126699447631836,-0.021324098110198975,0.003850206732749939
1783079946483819500,1.446819580078125,-0.1320343017578125,-0.01933586597442627,0.025354772806167603
1783079946503515100,1.46651513671875,-0.1253509521484375,-0.015208184719085693,0.06073792278766632
1783079946523364400,1.4863642578125,-0.03815937042236328,0.005433201789855957,-0.03488847613334656
1783079946543213800,1.5062138671875,0.10139083862304688,-0.0198325514793396,-0.09092873334884644
1783079946563255600,1.526255615234375,0.17618083953857422,-0.01831790804862976,-0.010491281747817993
1783079946583105300,1.546105224609375,0.17714595794677734,-0.01239633560180664,0.10789032280445099
1783079946602762200,1.56576220703125,0.14614009857177734,0.05132049322128296,0.015118733048439026
1783079946622611700,1.58561181640625,-0.010897636413574219,0.07820862531661987,-0.04640913009643555
1783079946642461000,1.6054609375,-0.15808677673339844,0.10609549283981323,-0.0019807666540145874
1783079946662503000,1.6255029296875,-0.15964031219482422,0.11705207824707031,0.050336822867393494
1783079946682160000,1.64516015625,0.023441314697265625,0.09557491540908813,0.011838272213935852
1783079946702009300,1.66500927734375,0.0986032485961914,0.020556747913360596,-0.01965266466140747
1783079946721858800,1.68485888671875,0.17411231994628906,0.021513402462005615,-0.047535791993141174
1783079946741708300,1.704708251953125,0.06240558624267578,-0.021677494049072266,-0.03104335069656372
1783079946761750300,1.724750244140625,-0.04554939270019531,0.01608121395111084,-0.0015672296285629272
1783079946781407200,1.7444072265625,-0.036823272705078125,-0.019984841346740723,0.020975753664970398
1783079946801449500,1.764449462890625,0.01999950408935547,-0.03499424457550049,-0.022141233086586
1783079946821106400,1.7841064453125,0.007907867431640625,-0.031075000762939453,0.04095187783241272
1783079946840956000,1.803955810546875,-0.02665233612060547,-0.04460597038269043,0.04691387712955475
1783079946860998000,1.823997802734375,-0.060153961181640625,-0.05284261703491211,-0.025044962763786316
1783079946880847400,1.843847412109375,-0.11358070373535156,-0.0660352110862732,0.03299807012081146
1783079946900504600,1.863504638671875,-0.07738494873046875,-0.047700583934783936,0.07419219613075256
1783079946920353800,1.883353759765625,0.024606704711914062,-0.0014505386352539062,0.07198229432106018
1783079946940203300,1.903203369140625,0.0628957748413086,-0.017745018005371094,0.02363966405391693
1783079946960245200,1.923245361328125,0.005221366882324219,-0.06094306707382202,-0.0011487901210784912
1783079946979902500,1.94290234375,-0.0063228607177734375,-0.008325695991516113,-0.03590109944343567
1783079946999944200,1.962944091796875,-0.07786273956298828,0.022230148315429688,0.002587944269180298
1783079947019601400,1.982601318359375,-0.031589508056640625,0.028467118740081787,0.0031096935272216797
1783079947039643100,2.00264306640625,-0.014720916748046875,0.0007870793342590332,0.04151979088783264
1783079947059492900,2.022492919921875,-0.021282196044921875,0.022119224071502686,0.0487423837184906
1783079947079150000,2.042150146484375,-0.08998394012451172,0.019410014152526855,-0.0068642497062683105
1783079947098999300,2.061999267578125,-0.06174278259277344,0.044188857078552246,-0.08445745706558228
1783079947118848800,2.081848876953125,-0.044048309326171875,-0.0043618083000183105,-0.09590959548950195
1783079947138890800,2.101890869140625,0.06550216674804688,-0.00831824541091919,-0.03093080222606659
1783079947158586000,2.121586181640625,0.13907527923583984,0.0003255307674407959,0.010862067341804504
1783079947178397200,2.141397216796875,0.21278667449951172,-0.007920771837234497,0.03343304991722107
1783079947198246700,2.16124658203125,0.09236907958984375,-0.001728653907775879,0.04253442585468292
1783079947218134300,2.18113427734375,-0.06997966766357422,0.009628385305404663,0.02242833375930786
1783079947238138000,2.20113818359375,-0.1461343765258789,0.05008655786514282,0.015826493501663208
1783079947257833500,2.22083349609375,-0.11389636993408203,0.007858455181121826,-0.036137357354164124
1783079947277837000,2.240837158203125,0.009543418884277344,-0.02847304940223694,-0.015216976404190063
1783079947297532700,2.26053271484375,0.059650421142578125,-0.02695244550704956,0.031126245856285095
1783079947317536300,2.280536376953125,0.055271148681640625,-0.005470365285873413,0.01730436086654663
1783079947337385700,2.3003857421875,0.032622337341308594,0.03567233681678772,-0.07240389287471771
1783079947357043000,2.32004296875,-0.030966758728027344,-0.015135645866394043,-0.05780847370624542
1783079947376892200,2.33989208984375,-0.041665077209472656,0.0031744539737701416,-0.00667649507522583
1783079947396741600,2.35974169921875,-0.0011539459228515625,-0.016554445028305054,0.003530174493789673
1783079947416783600,2.37978369140625,0.02179718017578125,-0.0012311339378356934,-0.08523471653461456
1783079947436633000,2.399633056640625,-0.009049415588378906,-0.03129094839096069,-0.07710370421409607
1783079947456290300,2.419290283203125,-0.08507156372070312,-0.015134453773498535,-0.00591181218624115
1783079947476332000,2.43933203125,-0.07994937896728516,-0.013309180736541748,0.011296853423118591
1783079947495989200,2.4589892578125,-0.017434120178222656,-0.007469743490219116,-0.038766562938690186
1783079947516031200,2.47903125,0.08223724365234375,-0.015935182571411133,-0.0012897104024887085
1783079947535880700,2.498880615234375,0.144012451171875,0.01281401515007019,0.029147624969482422
1783079947555730400,2.51873046875,0.13910675048828125,-0.0023759007453918457,0.046960338950157166
1783079947575387400,2.538387451171875,0.06974220275878906,-0.009638786315917969,0.015184834599494934
1783079947595236600,2.558236572265625,0.0352630615234375,-0.0037384033203125,-0.01595650613307953
1783079947615278600,2.578278564453125,-0.03280830383300781,0.025974422693252563,-0.00146542489528656
1783079947635128300,2.59812841796875,-0.06640911102294922,0.013274341821670532,0.01757223904132843
1783079947654785300,2.617785400390625,-0.09206008911132812,-0.008242696523666382,0.019473299384117126
1783079947674634500,2.637634521484375,-0.07279205322265625,-0.016655713319778442,-0.03719086945056915
1783079947694560800,2.657560791015625,-0.017073631286621094,-0.013145476579666138,-0.04786190390586853
1783079947714526000,2.67752587890625,-0.016648292541503906,-0.017069607973098755,-0.05249883234500885
1783079947734375700,2.697375732421875,0.055382728576660156,-0.022593319416046143,-0.015300199389457703
1783079947754032600,2.71703271484375,0.11350536346435547,-0.02322903275489807,0.02670571208000183
1783079947773882000,2.736882080078125,0.11673927307128906,0.004766315221786499,0.03544469177722931
1783079947793731300,2.7567314453125,0.06682491302490234,0.04286262392997742,0.04632514715194702
1783079947813773300,2.776773193359375,-0.050785064697265625,0.001985609531402588,0.04749208688735962
1783079947833622800,2.796622802734375,-0.0905160903930664,0.021822601556777954,0.017064571380615234
1783079947853280000,2.816280029296875,-0.08287239074707031,0.017490774393081665,0.032621994614601135
1783079947873168000,2.83616796875,-0.03400135040283203,-0.0036764442920684814,0.07781502604484558
1783079947892978700,2.855978759765625,-0.016815185546875,-0.029920339584350586,0.027765631675720215
1783079947913020700,2.876020751953125,0.032341957092285156,-0.014891892671585083,-0.06573271751403809
1783079947932678000,2.895677978515625,0.045116424560546875,-0.010684400796890259,-0.07652176916599274
1783079947952527000,2.915527099609375,0.015847206115722656,-0.05074533820152283,-0.018165454268455505
1783079947972376600,2.93537646484375,0.00601959228515625,-0.016928553581237793,-0.036430925130844116
1783079947992226000,2.95522607421875,-0.049747467041015625,-0.023102283477783203,-0.01731047034263611
1783079948012268000,2.97526806640625,0.012099266052246094,0.012977570295333862,-0.01002618670463562
1783079948031925000,2.994925048828125,-0.013767242431640625,0.019296079874038696,-0.0034467577934265137
1783079948051967200,3.01496728515625,-0.0017595291137695312,0.01947084069252014,-0.024056091904640198
1783079948071624200,3.034624267578125,-0.02946949005126953,0.015321671962738037,-0.005009874701499939
1783079948091473700,3.0544736328125,0.0015926361083984375,0.020732134580612183,-0.009121611714363098
1783079948111515600,3.074515625,0.024518966674804688,0.019170105457305908,-0.0270221084356308
1783079948131365000,3.094365234375,0.06521129608154297,-0.0071465373039245605,-0.026458680629730225
1783079948151214800,3.11421484375,0.03760242462158203,-0.020203471183776855,0.03877440094947815
1783079948170872000,3.1338720703125,0.015700340270996094,0.0006426870822906494,0.019044026732444763
1783079948190913800,3.153913818359375,-0.014759063720703125,0.0010209381580352783,-0.02241627871990204
1783079948210763300,3.17376318359375,-0.023459434509277344,-0.01855143904685974,-0.050814881920814514
1783079948230613000,3.193613037109375,-0.022668838500976562,-0.00521087646484375,-0.014352291822433472
1783079948250462500,3.21346240234375,-0.07282352447509766,-0.010606765747070312,0.035233303904533386
1783079948270312000,3.23331201171875,-0.061102867126464844,-0.002926349639892578,0.05059579014778137
1783079948290007600,3.253007568359375,-0.05439949035644531,-0.032216876745224,0.04543738067150116
1783079948310011000,3.273010986328125,-0.0155792236328125,0.008602291345596313,0.004350528120994568
1783079948329860600,3.292860595703125,0.035686492919921875,-0.017930924892425537,0.015327408909797668
1783079948349710000,3.3127099609375,0.10137367248535156,-0.022164762020111084,-0.019675076007843018
1783079948369559600,3.3325595703125,0.15337085723876953,-0.02137690782546997,-0.005342081189155579
1783079948389409000,3.352408935546875,0.13675975799560547,0.011439502239227295,0.011799439787864685
1783079948409258500,3.372258544921875,0.04228687286376953,0.017958343029022217,0.03621070086956024
1783079948429108200,3.392108154296875,-0.0697946548461914,0.03962484002113342,-0.004338398575782776
1783079948448957700,3.411957763671875,-0.11119556427001953,0.018203407526016235,0.0004480034112930298
1783079948468807200,3.43180712890625,-0.04273700714111328,0.018980413675308228,0.012739971280097961
1783079948488656600,3.45165673828125,0.023306846618652344,-0.001721411943435669,0.043613821268081665
1783079948508506000,3.471506103515625,0.013242721557617188,-0.006290614604949951,0.048390746116638184
1783079948528355600,3.49135546875,0.010596275329589844,0.000714421272277832,-0.0021346956491470337
1783079948548205000,3.511205078125,-0.019728660583496094,-0.010720670223236084,0.00015942752361297607
1783079948568054500,3.531054443359375,-0.01666545867919922,-0.03339046239852905,0.015660300850868225
1783079948587904000,3.550904052734375,-0.011486053466796875,-0.0034123659133911133,0.019917085766792297
1783079948607753700,3.570753662109375,-0.02962779998779297,-0.009336382150650024,-0.009139299392700195
1783079948627603200,3.590603271484375,-0.0239410400390625,0.008207947015762329,-0.05931398272514343
1783079948647452700,3.61045263671875,-0.06231689453125,0.016288578510284424,-0.04942524433135986
1783079948667302100,3.63030224609375,-0.03466606140136719,0.03393760323524475,-0.02743670344352722
1783079948687151600,3.650151611328125,-0.03590869903564453,0.028775691986083984,-0.013054221868515015
1783079948707001000,3.6700009765625,0.013692855834960938,0.013531357049942017,-0.04247823357582092
1783079948726850600,3.6898505859375,0.06399154663085938,0.011628299951553345,-0.059465378522872925
1783079948746700000,3.709699951171875,0.08033561706542969,0.034602344036102295,-0.00505375862121582
1783079948766549500,3.729549560546875,0.061603546142578125,0.002333998680114746,0.05942997336387634
1783079948786399000,3.74939892578125,0.048224449157714844,0.009771406650543213,0.022336602210998535
1783079948806248400,3.76924853515625,-0.03639793395996094,-0.01627376675605774,-0.0052362531423568726
1783079948826098000,3.789097900390625,-0.034961700439453125,0.0152207612991333,-0.011840686202049255
1783079948845947400,3.808947509765625,-0.03606891632080078,0.006215125322341919,0.04307013750076294
1783079948865797000,3.828797119140625,0.06694889068603516,-0.03763020038604736,0.006875738501548767
1783079948885646300,3.848646240234375,0.025528907775878906,-0.06652909517288208,-0.05862182378768921
1783079948905496000,3.86849609375,-0.023436546325683594,-0.054120033979415894,-0.048143357038497925
1783079948925345500,3.888345458984375,-0.12642288208007812,0.0025631487369537354,-0.006782963871955872
1783079948945195000,3.908195068359375,-0.12683677673339844,0.00719374418258667,-0.02713046967983246
1783079948965044500,3.92804443359375,-0.060523033142089844,-0.009185701608657837,-0.06570716202259064
1783079948984894000,3.94789404296875,0.052173614501953125,-0.012146979570388794,-0.03156307339668274
1783079949004743400,3.967743408203125,0.1381244659423828,0.02358981966972351,0.038572460412979126
1783079949024593000,3.987593017578125,0.1705951690673828,0.037957996129989624,0.0810605138540268
1783079949044442400,4.0074423828125,0.09807968139648438,0.03623732924461365,0.05706991255283356
1783079949064291800,4.027291748046875,-0.018143653869628906,0.03248816728591919,0.04076142609119415
1783079949084141300,4.047141357421875,-0.09596061706542969,0.03398439288139343,0.016133159399032593
1783079949103990800,4.06699072265625,-0.014171600341796875,0.030270516872406006,0.02269408106803894
1783079949123648000,4.08664794921875,0.004567146301269531,-0.04549086093902588,0.02659556269645691
1783079949143497200,4.106497314453125,0.013690948486328125,-0.05275446176528931,0.032174721360206604
1783079949163539000,4.1265390625,-0.03283882141113281,-0.024689197540283203,-0.04172651469707489
1783079949183196000,4.14619580078125,-0.08948516845703125,-0.025180518627166748,-0.01758924126625061
1783079949203045000,4.166045166015625,-0.1051321029663086,-0.021704405546188354,0.0064675211906433105
1783079949222894600,4.18589453125,-0.050902366638183594,-0.001148134469985962,0.010391011834144592
1783079949242744000,4.205744140625,-0.040078163146972656,0.021635621786117554,-0.021254554390907288
1783079949262786000,4.2257861328125,-0.006413459777832031,0.043674081563949585,-0.07056738436222076
1783079949282443000,4.245443115234375,0.0052318572998046875,0.04944324493408203,-0.03207966685295105
1783079949302331000,4.265330810546875,-0.009037971496582031,0.10046547651290894,0.06997507810592651
1783079949322180400,4.285180419921875,0.009685516357421875,0.09491509199142456,0.10860136896371841
1783079949342029800,4.30502978515625,0.13178348541259766,0.10417956113815308,-0.04401378333568573
1783079949362033400,4.325033447265625,0.17105484008789062,0.04673433303833008,-0.10548314452171326
1783079949381883100,4.344883056640625,0.1700000762939453,0.012510061264038086,-0.046170562505722046
1783079949401540400,4.364540283203125,0.09306049346923828,0.006891846656799316,0.024809017777442932
1783079949421389600,4.3843896484375,-0.03206920623779297,0.021583110094070435,-0.0013844817876815796
1783079949441238800,4.40423876953125,-0.07912063598632812,0.009534895420074463,-0.06047751009464264
1783079949461280800,4.42428076171875,-0.09481525421142578,-0.030106067657470703,-0.06291717290878296
1783079949480938000,4.44393798828125,-0.12172412872314453,-0.028290271759033203,0.015636220574378967
1783079949500980000,4.46397998046875,-0.004340171813964844,-0.016839951276779175,0.05389918386936188
1783079949520829400,4.483829345703125,-0.008780479431152344,-0.07619580626487732,0.04746028780937195
1783079949540486700,4.503486572265625,-0.06822967529296875,-0.04793596267700195,0.01939636468887329
1783079949560528400,4.5235283203125,-0.1557483673095703,0.017283856868743896,0.0021927058696746826
1783079949580185600,4.543185546875,-0.1365823745727539,0.028511643409729004,0.008254438638687134
1783079949600034800,4.563034912109375,0.011025428771972656,0.006604790687561035,0.01402197778224945
1783079949619884300,4.58288427734375,0.14894962310791016,-0.03899317979812622,0.03698714077472687
1783079949639926300,4.60292626953125,0.1553812026977539,-0.06189116835594177,0.08219030499458313
1783079949659776000,4.62277587890625,0.11115264892578125,-0.025645017623901367,0.048443570733070374
1783079949679433000,4.642432861328125,-0.019420623779296875,-0.010265648365020752,0.014060050249099731
1783079949699282400,4.662282470703125,-0.10173511505126953,-0.02486485242843628,0.013835549354553223
1783079949719131600,4.682131591796875,-0.0959930419921875,-0.020215332508087158,0.0015716403722763062
1783079949739173600,4.702173583984375,-0.09074878692626953,-0.001118004322052002,0.05559280514717102
1783079949759023400,4.7220234375,0.03234577178955078,0.002289503812789917,0.03545123338699341
1783079949778680600,4.7416806640625,0.026462554931640625,-0.023019999265670776,-0.006966829299926758
1783079949798722300,4.761722412109375,-0.004427909851074219,-0.00966554880142212,0.005457550287246704
1783079949818379500,4.781379638671875,-0.04830360412597656,0.021190941333770752,0.06665520370006561
1783079949838421500,4.80142138671875,-0.01687335968017578,-0.023167937994003296,0.08210837841033936
1783079949858078500,4.821078369140625,0.04362201690673828,-0.02591782808303833,-0.020732462406158447
1783079949878120400,4.841120361328125,0.07448863983154297,0.009004801511764526,-0.07573364675045013
1783079949897778000,4.86077783203125,-0.04133129119873047,0.017589867115020752,0.005381658673286438
1783079949917819400,4.8808193359375,-0.07462215423583984,0.04086548089981079,-0.009872466325759888
1783079949937668900,4.9006689453125,-0.06997394561767578,0.051313698291778564,0.005431473255157471
1783079949977175300,4.94017529296875,0.10989856719970703,0.04086506366729736,0.005321487784385681
1783079949997024800,4.960024658203125,0.1706829071044922,0.008174419403076172,-0.047009944915771484
1783079950016874000,4.9798740234375,0.16259193420410156,0.002899765968322754,-0.05917885899543762
1783079950036916200,4.999916259765625,0.0856008529663086,-0.018653780221939087,-0.0023788362741470337
1783079950056573200,5.0195732421875,-0.0048313140869140625,0.012718439102172852,0.03987877070903778
1783079950076615200,5.039615234375,-0.032263755798339844,0.00764542818069458,-0.019005149602890015
1783079950096464600,5.059464599609375,-0.052025794982910156,-0.007559627294540405,-0.03922948241233826
1783079950116314400,5.079314453125,-0.0017194747924804688,-0.016479134559631348,0.039716899394989014
1783079950136164000,5.0991640625,-0.038588523864746094,-0.028321146965026855,0.05493800342082977
1783079950155821000,5.118821044921875,-0.0949239730834961,-0.029282420873641968,-0.03114400804042816
1783079950175862800,5.13886279296875,-0.15406036376953125,-0.0001500248908996582,-0.05868887901306152
1783079950195520000,5.15852001953125,-0.1212472915649414,0.030902504920959473,-0.03324246406555176
1783079950215561700,5.178561767578125,-0.01591014862060547,-0.0023779869079589844,-0.0029913783073425293
1783079950235411500,5.198411376953125,0.15520095825195312,-0.00517350435256958,-0.058252766728401184
1783079950255068400,5.218068359375,0.2354278564453125,-0.05138117074966431,-0.03886985778808594
1783079950274918000,5.23791796875,0.1469125747680664,-0.0368063747882843,-0.00908556580543518
1783079950294767000,5.25776708984375,0.008310317993164062,-0.029698729515075684,0.0001913607120513916
1783079950314809000,5.27780908203125,-0.1095895767211914,-0.0012803971767425537,-0.027263015508651733
1783079950334658600,5.297658447265625,-0.11268997192382812,-0.002949744462966919,-0.02206878364086151
1783079950354508300,5.31750830078125,-0.0650320053100586,0.029003292322158813,-0.0047235190868377686
1783079950374204000,5.337203857421875,-0.009859085083007812,0.028171300888061523,0.007160753011703491
1783079950394053000,5.35705322265625,0.018133163452148438,0.012144237756729126,0.00008556246757507324
1783079950414056700,5.377056640625,0.0152740478515625,0.023040086030960083,0.002145335078239441
1783079950433906400,5.396906494140625,-0.01989459991455078,0.009149491786956787,0.02913042902946472
1783079950453563400,5.4165634765625,0.031548500061035156,-0.018104881048202515,0.0032927989959716797
1783079950473412600,5.43641259765625,0.039580345153808594,-0.02617475390434265,-0.012347757816314697
1783079950493262000,5.456261962890625,0.07991313934326172,0.02344706654548645,0.010887682437896729
1783079950513303800,5.4763037109375,0.0057525634765625,-0.03735479712486267,0.028196051716804504
1783079950532961000,5.4959609375,-0.028835296630859375,0.0019718706607818604,-0.04278174042701721
1783079950552810500,5.515810546875,-0.09246444702148438,-0.002214759588241577,-0.026798740029335022
1783079950572659700,5.53565966796875,-0.0940256118774414,0.026087015867233276,0.0322466641664505
1783079950592509200,5.55550927734375,0.003734588623046875,0.05236375331878662,0.06072916090488434
1783079950612551200,5.57555126953125,0.10271263122558594,-0.009553760290145874,0.0230586975812912
1783079950632208400,5.59520849609375,0.09224796295166016,-0.04030203819274902,0.011706843972206116
1783079950652057600,5.6150576171875,0.022284507751464844,-0.00581088662147522,0.0014925450086593628
1783079950671907000,5.634906982421875,-0.05458545684814453,0.003897339105606079,-0.004028573632240295
1783079950691756500,5.654756591796875,-0.03890419006347656,0.01215595006942749,-0.05284334719181061
1783079950711798500,5.674798583984375,-0.06078815460205078,-0.034469157457351685,0.0007477253675460815
1783079950731455700,5.694455810546875,0.0013360977172851562,0.02561432123184204,0.020604535937309265
1783079950751305200,5.71430517578125,-0.04272270202636719,0.0005517005920410156,0.013748601078987122
1783079950771154400,5.734154541015625,-0.045867919921875,0.010456174612045288,-0.04316778481006622
1783079950791004000,5.75400390625,-0.06974029541015625,0.05156281590461731,-0.04216322302818298
1783079950811046100,5.774046142578125,-0.055932044982910156,0.05279064178466797,-0.0013981908559799194
1783079950830703000,5.793703125,0.04969596862792969,0.023278474807739258,-0.056361645460128784
1783079950850552600,5.813552490234375,0.1031341552734375,-0.02341318130493164,-0.04936070740222931
1783079950870402000,5.833402099609375,0.17372798919677734,-0.040585219860076904,0.044573843479156494
1783079950890258200,5.853258056640625,0.08498954772949219,0.005994349718093872,0.08187203109264374
1783079950910302200,5.87330224609375,-0.035404205322265625,0.018484145402908325,0.0062294602394104
1783079950930199600,5.893199462890625,-0.10568809509277344,-0.019703388214111328,-0.05525590479373932
1783079950969893400,5.932893310546875,-0.0352630615234375,-0.02688884735107422,0.07278643548488617
1783079950989675000,5.952675048828125,0.04688262939453125,-0.016034305095672607,0.026269137859344482
1783079951009335600,5.97233544921875,0.020030975341796875,-0.019317954778671265,-0.05158619582653046
1783079951029434400,5.992434326171875,-0.033644676208496094,0.0048458874225616455,-0.05619466304779053
1783079951049308000,6.012307861328125,-0.04169178009033203,-0.011524856090545654,-0.036855608224868774
1783079951069077000,6.032076904296875,0.00586700439453125,0.003563910722732544,-0.0017711669206619263
1783079951088736800,6.05173681640625,0.03558063507080078,-0.020519614219665527,0.03335362672805786
1783079951108588000,6.071588134765625,0.020522117614746094,-0.008500248193740845,0.009209766983985901
1783079951128458500,6.09145849609375,-0.037812232971191406,0.011178344488143921,0.0006655454635620117
1783079951148498000,6.111497802734375,-0.05717945098876953,0.039295345544815063,0.019519224762916565
1783079951168326400,6.131326416015625,-0.041405677795410156,0.010873854160308838,0.021785467863082886
1783079951188005000,6.151005126953125,-0.030971527099609375,0.014802992343902588,0.009802460670471191
1783079951208025600,6.171025634765625,0.04158973693847656,0.020522505044937134,0.013083890080451965
1783079951227704600,6.19070458984375,0.06091594696044922,0.006093144416809082,0.07304129004478455
1783079951247724800,6.210724853515625,0.08898544311523438,0.01196974515914917,0.006882399320602417
1783079951267384000,6.230384033203125,0.00046253204345703125,-0.0010286569595336914,-0.05502283573150635
1783079951287235000,6.250235107421875,-0.017917633056640625,0.004517644643783569,0.005390331149101257
1783079951307085600,6.27008544921875,-0.03805828094482422,0.01674303412437439,0.026712268590927124
1783079951326955800,6.289955810546875,0.0072479248046875,-0.0018945038318634033,-0.019110366702079773
1783079951346994700,6.30999462890625,0.00701904296875,0.020814865827560425,-0.014350667595863342
1783079951366826500,6.329826416015625,-0.03252983093261719,0.00716400146484375,0.007588624954223633
1783079951386523100,6.349523193359375,-0.04297065734863281,-0.002587616443634033,-0.007395997643470764
1783079951406373400,6.369373291015625,0.0048160552978515625,-0.006200045347213745,-0.044054821133613586
1783079951426223600,6.3892236328125,0.004576683044433594,-0.004707753658294678,-0.07323020696640015
1783079951446073600,6.409073486328125,0.03895759582519531,-0.010095953941345215,-0.04071611166000366
1783079951465939000,6.42893896484375,0.0629415512084961,-0.02828863263130188,-0.030331343412399292
1783079951485920800,6.448920654296875,0.11175346374511719,-0.025791674852371216,-0.03790766000747681
1783079951505579500,6.46857958984375,0.10122299194335938,0.009588479995727539,-0.04769261181354523
1783079951525449700,6.48844970703125,0.0033731460571289062,-0.02275139093399048,0.0336032509803772
1783079951565387500,6.528387451171875,-0.18236160278320312,0.05128669738769531,0.03970707952976227
1783079951585176800,6.5481767578125,-0.18583965301513672,0.03933143615722656,0.12220772355794907
1783079951605026300,6.5680263671875,-0.011401176452636719,0.06767085194587708,0.0970483124256134
1783079951624953000,6.587953125,0.053290367126464844,-0.003385394811630249,0.07343527674674988
1783079951644725500,6.6077255859375,0.15553855895996094,-0.01786017417907715,-0.0697668194770813
1783079951664575000,6.627574951171875,0.0857696533203125,-0.10720652341842651,-0.17805054783821106
1783079951684424400,6.647424560546875,0.4151887893676758,-0.17567113041877747,-0.16000010073184967
1783079951704330500,6.66733056640625,-0.15682125091552734,-0.10088908672332764,-0.034404605627059937
1783079951724188700,6.687188720703125,-0.3632659912109375,0.02900904417037964,0.013458490371704102
