time,seconds_elapsed,z,y,x
1783079963554459400,0.10045947265625,0.1049661636352539,0.21706843376159668,0.044766392558813095
1783079963574261000,0.120260986328125,0.32285213470458984,0.1663864254951477,0.05040118098258972
1783079963614022700,0.160022705078125,0.014410972595214844,-0.023196518421173096,-0.032314226031303406
1783079963633808000,0.179807861328125,-0.21558475494384766,0.012066781520843506,-0.1885083019733429
1783079963653657300,0.1996572265625,-0.37355709075927734,0.02731841802597046,-0.23127003014087677
1783079963673506800,0.2195068359375,-0.4298744201660156,0.011205434799194336,-0.10160355269908905
1783079963693202200,0.2392021484375,-0.3159751892089844,0.027248859405517578,0.01826620101928711
1783079963713205500,0.25920556640625,-0.08815860748291016,-0.014259934425354004,0.0028491616249084473
1783079963733055000,0.279054931640625,0.09044456481933594,-0.10341733694076538,-0.08547590672969818
1783079963752750300,0.298750244140625,0.13399887084960938,-0.1156492829322815,-0.10682310163974762
1783079963772599600,0.318599609375,0.2203531265258789,-0.06820178031921387,-0.1254490166902542
1783079963792449000,0.338448974609375,0.10943222045898438,-0.043033719062805176,-0.027703404426574707
1783079963812452400,0.358452392578125,0.07420635223388672,-0.03477346897125244,0.08514830470085144
1783079963832148000,0.37814794921875,-0.02931499481201172,-0.0032157301902770996,0.12076570093631744
1783079963851997200,0.3979970703125,-0.11316680908203125,0.01744788885116577,0.14638379216194153
1783079963871846700,0.4178466796875,-0.15969276428222656,0.032441675662994385,0.10556486994028091
1783079963891696000,0.437696044921875,-0.24631786346435547,0.011357367038726807,0.06833092868328094
1783079963911699500,0.457699462890625,-0.21222972869873047,0.030736148357391357,-0.008542254567146301
1783079963931395000,0.47739501953125,-0.16582679748535156,0.033935368061065674,-0.03325088322162628
1783079963951244300,0.497244384765625,-0.09809589385986328,0.026990234851837158,0.02559340000152588
1783079963971055400,0.517055419921875,-0.041759490966796875,0.029020249843597412,0.01915322244167328
1783079963990904600,0.536904541015625,-0.0055084228515625,-0.010213971138000488,-0.038984283804893494
1783079964010946600,0.556946533203125,-0.097625732421875,-0.01910191774368286,-0.08535328507423401
1783079964030796300,0.57679638671875,-0.0919351577758789,-0.03776496648788452,-0.07696138322353363
1783079964050645800,0.596645751953125,-0.029069900512695312,-0.05787605047225952,-0.07405892014503479
1783079964070303000,0.616302978515625,0.10084247589111328,-0.09015315771102905,-0.10014881193637848
1783079964090152200,0.636152099609375,0.1733083724975586,-0.11113709211349487,-0.10851991176605225
1783079964110194200,0.656194091796875,0.16747665405273438,-0.12027561664581299,-0.07199753820896149
1783079964130043600,0.676043701171875,0.0881805419921875,-0.11049830913543701,-0.0497056245803833
1783079964149893400,0.695893310546875,-0.046138763427734375,-0.054975807666778564,-0.015332579612731934
1783079964169742800,0.715742919921875,-0.132232666015625,-0.03233402967453003,-0.016499683260917664
1783079964189592300,0.73559228515625,-0.14644432067871094,0.013859748840332031,0.03603304922580719
1783079964209441800,0.75544189453125,0.008538246154785156,0.04662293195724487,0.08871592581272125
1783079964229291300,0.775291259765625,-0.012829780578613281,0.052442967891693115,0.0816967785358429
1783079964249140700,0.795140625,0.022500038146972656,0.09967076778411865,0.06540453433990479
1783079964268990200,0.814990234375,-0.03123188018798828,0.13360506296157837,0.07151985168457031
1783079964288840000,0.83483984375,-0.11324310302734375,0.10991078615188599,0.109267458319664
1783079964308689400,0.854689453125,-0.08859443664550781,0.09609925746917725,0.09981708228588104
1783079964328539000,0.874538818359375,-0.0025997161865234375,0.04684072732925415,0.07732385396957397
1783079964348388400,0.894388427734375,0.13591957092285156,0.005792737007141113,0.026238039135932922
1783079964368237800,0.91423779296875,0.12900352478027344,-0.06335574388504028,0.01396360993385315
1783079964388087300,0.93408740234375,0.16446971893310547,-0.04334741830825806,-0.03819967806339264
1783079964407936500,0.9539365234375,0.08320903778076172,-0.050903499126434326,-0.11149169504642487
1783079964427786200,0.9737861328125,-0.07149696350097656,-0.0635107159614563,-0.054619356989860535
1783079964447635700,0.9936357421875,-0.17483234405517578,-0.00024443864822387695,0.012473732233047485
1783079964467485200,1.013485107421875,-0.22652244567871094,-0.007656514644622803,-0.0027125179767608643
1783079964487334700,1.033334716796875,-0.1799325942993164,0.00963670015335083,-0.08344651758670807
1783079964507184000,1.05318408203125,-0.02427959442138672,-0.03622406721115112,-0.03882068395614624
1783079964527033300,1.073033447265625,0.09155464172363281,-0.05290424823760986,-0.02918335795402527
1783079964546882800,1.0928828125,0.15325450897216797,-0.057202935218811035,-0.06251087784767151
1783079964566732500,1.112732666015625,0.06760787963867188,-0.00974184274673462,-0.024016574025154114
1783079964586581800,1.132581787109375,-0.0590057373046875,-0.0325886607170105,0.021925151348114014
1783079964606431200,1.15243115234375,-0.06139564514160156,0.0013878345489501953,-0.03055216372013092
1783079964626280700,1.17228076171875,-0.029520034790039062,-0.012221992015838623,-0.0058359503746032715
1783079964646130200,1.192130126953125,0.02883625030517578,-0.030359745025634766,0.08402954041957855
1783079964665979600,1.211979736328125,0.04852581024169922,0.0006617307662963867,0.07925662398338318
1783079964685829000,1.2318291015625,0.03336048126220703,0.048147499561309814,0.00824899971485138
1783079964705678600,1.2516787109375,-0.04143714904785156,0.0855255126953125,-0.02899724245071411
1783079964725528000,1.271528076171875,-0.15338420867919922,0.059332847595214844,0.03595203161239624
1783079964745377500,1.29137744140625,-0.07233524322509766,0.11578124761581421,0.016299694776535034
1783079964765227000,1.31122705078125,0.10050773620605469,0.06278198957443237,-0.05349104106426239
1783079964785076500,1.331076416015625,0.20314884185791016,0.01708739995956421,-0.14519931375980377
1783079964804926000,1.350926025390625,0.1919727325439453,0.021448254585266113,-0.07687540352344513
1783079964824775400,1.370775390625,0.04989814758300781,0.028067409992218018,0.06157360225915909
1783079964844625000,1.390625,-0.05028247833251953,0.07298272848129272,0.06374336034059525
1783079964864474400,1.410474365234375,-0.11053276062011719,0.08795011043548584,0.06529850512742996
1783079964884323800,1.43032373046875,-0.1068878173828125,0.03892737627029419,0.08483836054801941
1783079964903980800,1.449980712890625,-0.038832664489746094,-0.02912437915802002,0.0432431697845459
1783079964924022500,1.4700224609375,0.06188201904296875,-0.04410111904144287,0.03502702713012695
1783079964943872000,1.4898720703125,0.025445938110351562,-0.08158320188522339,0.024370267987251282
1783079964963721500,1.509721435546875,-0.08115100860595703,-0.08314782381057739,-0.025954559445381165
1783079964983378400,1.52937841796875,-0.17512226104736328,-0.06611543893814087,-0.07574377954006195
1783079965003227600,1.5492275390625,-0.2501859664916992,-0.08088773488998413,-0.08934533596038818
1783079965023269400,1.569269287109375,-0.15190601348876953,-0.07275491952896118,-0.08964851498603821
1783079965042926600,1.588926513671875,-0.0362091064453125,-0.060511767864227295,-0.08278709650039673
1783079965062968300,1.60896826171875,0.05956554412841797,-0.051720499992370605,-0.12194223701953888
1783079965082625300,1.628625244140625,0.08735466003417969,-0.010512709617614746,-0.14754526317119598
1783079965102474800,1.648474853515625,0.09566688537597656,0.0069882869720458984,-0.03257444500923157
1783079965122324000,1.668323974609375,0.1869964599609375,0.06160932779312134,0.07493176311254501
1783079965142173400,1.68817333984375,0.17825031280517578,0.056513309478759766,0.14207513630390167
1783079965162215200,1.708215087890625,0.1099863052368164,0.05217033624649048,0.14405837655067444
1783079965181872400,1.727872314453125,0.007178306579589844,0.07586032152175903,0.12112528830766678
1783079965201914400,1.747914306640625,-0.0483245849609375,0.051132261753082275,0.07655951380729675
1783079965221571300,1.7675712890625,-0.05133819580078125,0.023356914520263672,0.05100575089454651
1783079965241613300,1.78761328125,-0.07756710052490234,-0.0076163411140441895,0.04871007800102234
1783079965261462800,1.807462890625,-0.09150218963623047,-0.025498569011688232,0.021297916769981384
1783079965281120000,1.8271201171875,-0.10742473602294922,0.012389838695526123,-0.030945375561714172
1783079965300969200,1.84696923828125,-0.02138233184814453,0.02140069007873535,-0.09705831110477448
1783079965320818400,1.866818359375,0.04325675964355469,-0.04844695329666138,-0.11373403668403625
1783079965340668000,1.88666796875,0.12010860443115234,-0.04173898696899414,-0.08513881266117096
1783079965360710000,1.9067099609375,0.0791921615600586,-0.03405129909515381,-0.017331376671791077
1783079965380366800,1.926366943359375,0.03759479522705078,-0.03895789384841919,-0.050210848450660706
1783079965400216300,1.94621630859375,-0.011941909790039062,-0.012783944606781006,-0.11756953597068787
1783079965420065800,1.966065673828125,-0.027670860290527344,-0.014813423156738281,-0.10034775733947754
1783079965439915000,1.9859150390625,0.02163219451904297,-0.008067131042480469,-0.03852955996990204
1783079965459957000,2.00595703125,-0.0001468658447265625,-0.03462362289428711,0.010943770408630371
1783079965479806700,2.025806640625,0.062286376953125,0.022401928901672363,-0.008324146270751953
1783079965499464000,2.0454638671875,0.0279388427734375,0.006304740905761719,-0.010974138975143433
1783079965519313200,2.065313232421875,-0.009683609008789062,0.00940084457397461,-0.0117482990026474
1783079965539355100,2.085355224609375,-0.10386180877685547,0.00497812032699585,0.002123236656188965
1783079965559204600,2.10520458984375,-0.11644840240478516,0.005930960178375244,0.035979241132736206
1783079965578861800,2.12486181640625,-0.1311969757080078,0.057591795921325684,0.07308310270309448
1783079965598711000,2.1447109375,-0.06685256958007812,0.02882605791091919,0.08559088408946991
1783079965618753000,2.1647529296875,-0.09022712707519531,0.026575863361358643,0.05086611211299896
1783079965638602500,2.1846025390625,-0.05735015869140625,0.0017601251602172852,0.028678789734840393
1783079965658452200,2.2044521484375,-0.009664535522460938,-0.01500636339187622,0.05554763972759247
1783079965678147600,2.224147705078125,0.09398078918457031,-0.025309622287750244,-0.0040479302406311035
1783079965698151200,2.244151123046875,0.15952587127685547,-0.005443215370178223,-0.08944828808307648
1783079965718000600,2.264000732421875,0.09374046325683594,-0.007708430290222168,0.01975741982460022
1783079965737850000,2.28385009765625,-0.00188446044921875,0.013920903205871582,0.08615050464868546
1783079965757699600,2.303699462890625,-0.008665084838867188,0.02937901020050049,0.037352144718170166
1783079965777356800,2.323356689453125,0.014655113220214844,-0.0007694363594055176,-0.0043966323137283325
1783079965797206000,2.3432060546875,-0.00001430511474609375,-0.014371514320373535,0.004094019532203674
1783079965817247700,2.363247802734375,0.10844707489013672,-0.010285437107086182,0.0010575652122497559
1783079965837097200,2.38309716796875,0.11404705047607422,-0.0027260184288024902,0.029485806822776794
1783079965856754400,2.40275439453125,0.008737564086914062,-0.034240663051605225,0.0472111701965332
1783079965876796200,2.422796142578125,-0.11851882934570312,0.01458883285522461,0.03898830711841583
1783079965896645600,2.442645751953125,-0.06375789642333984,0.032028019428253174,0.031132206320762634
1783079965916495000,2.4624951171875,-0.020400047302246094,0.04903537034988403,0.054995179176330566
1783079965936344800,2.4823447265625,0.0009441375732421875,0.032512545585632324,0.11802409589290619
1783079965956001800,2.502001708984375,-0.054490089416503906,0.04674863815307617,0.025141559541225433
1783079965975851000,2.52185107421875,-0.06638145446777344,0.02422398328781128,-0.13402949273586273
1783079965995700500,2.541700439453125,-0.066650390625,0.008792102336883545,-0.15469367802143097
1783079966015742200,2.5617421875,0.06478309631347656,-0.020662248134613037,-0.03628167510032654
1783079966035591700,2.581591796875,0.08772468566894531,0.00223696231842041,0.019749805331230164
1783079966055249000,2.601248779296875,0.10777759552001953,-0.015385270118713379,0.003076702356338501
1783079966075098000,2.62109814453125,0.020890235900878906,-0.0061119794845581055,0.03256700187921524
1783079966094947600,2.640947509765625,0.0041351318359375,0.012024104595184326,0.04510793089866638
1783079966114989300,2.6609892578125,-0.03747081756591797,-0.010090887546539307,0.06831266731023788
1783079966134839000,2.680839111328125,-0.1078634262084961,0.01981121301651001,0.01523222029209137
1783079966154496000,2.70049609375,-0.12973880767822266,0.0071144700050354,-0.022447139024734497
1783079966174345500,2.720345458984375,-0.1072092056274414,0.03751373291015625,-0.08311983942985535
1783079966194194700,2.740194580078125,-0.016180992126464844,-0.005261063575744629,-0.09033854305744171
1783079966214236700,2.760236572265625,0.09713554382324219,0.0063852667808532715,-0.05654348433017731
1783079966234086400,2.78008642578125,0.14437007904052734,-0.03509116172790527,-0.022065594792366028
1783079966253743400,2.799743408203125,0.1880807876586914,0.007415771484375,-0.032717883586883545
1783079966273592600,2.819592529296875,0.1242837905883789,0.013218224048614502,-0.05943673849105835
1783079966293442000,2.839442138671875,-0.008786201477050781,0.044001758098602295,-0.0019355863332748413
1783079966313483800,2.85948388671875,-0.10975265502929688,0.07087582349777222,-0.023128047585487366
1783079966333141000,2.87914111328125,-0.14079570770263672,0.07981991767883301,0.01448298990726471
1783079966352990200,2.898990234375,0.009183883666992188,0.011456429958343506,0.01212020218372345
1783079966373032200,2.9190322265625,0.10788536071777344,-0.037429094314575195,0.006455659866333008
1783079966392689400,2.938689453125,0.15050411224365234,-0.04510939121246338,-0.04202339053153992
1783079966412731400,2.9587314453125,0.12485885620117188,-0.056217968463897705,-0.05010160803794861
1783079966432580900,2.978580810546875,0.04911327362060547,-0.09934526681900024,-0.05997650325298309
1783079966452237800,2.99823779296875,0.05923652648925781,-0.10187411308288574,-0.012542515993118286
1783079966472087000,3.018087158203125,0.08309745788574219,-0.055377304553985596,0.04576997458934784
1783079966491936500,3.0379365234375,-0.06491374969482422,-0.026983320713043213,0.04975564777851105
1783079966511978500,3.057978515625,-0.17784690856933594,-0.0018932223320007324,0.04631127417087555
1783079966531828000,3.077827880859375,-0.20638656616210938,0.020938515663146973,0.062112078070640564
1783079966551485200,3.097485107421875,-0.1281280517578125,0.019160926342010498,0.09727783501148224
1783079966571334400,3.11733447265625,0.009569168090820312,0.004613399505615234,0.07621236145496368
1783079966591184000,3.137183837890625,0.12670421600341797,-0.02230757474899292,0.04832056164741516
1783079966611225600,3.1572255859375,0.11554718017578125,-0.04948878288269043,0.03518299758434296
1783079966630882800,3.1768828125,-0.015170097351074219,-0.018394172191619873,0.03211657702922821
1783079966650924800,3.1969248046875,-0.10224723815917969,0.007390320301055908,0.019738420844078064
1783079966670774300,3.216774169921875,-0.0873403549194336,-0.008904576301574707,0.013224169611930847
1783079966690470000,3.236469970703125,-0.05238533020019531,-0.0213090181350708,0.008102744817733765
1783079966710511900,3.256511962890625,-0.027853012084960938,-0.01660710573196411,-0.006853118538856506
1783079966730168800,3.2761689453125,-0.0016698837280273438,0.0005543828010559082,-0.055163294076919556
1783079966750172200,3.296172119140625,-0.003951072692871094,-0.021752357482910156,-0.04350638389587402
1783079966769829400,3.315829345703125,0.012401580810546875,-0.03221452236175537,-0.0870710015296936
1783079966789871000,3.33587109375,0.01866626739501953,-0.00534588098526001,-0.09279745817184448
1783079966809720600,3.355720458984375,0.05226325988769531,0.00010377168655395508,-0.08086416125297546
1783079966829570300,3.3755703125,0.14043617248535156,0.04799818992614746,-0.030661001801490784
1783079966849419800,3.395419677734375,0.11045551300048828,0.03625130653381348,0.0681329071521759
1783079966869269200,3.415269287109375,0.005620002746582031,0.052888333797454834,0.0904117003083229
1783079966889118700,3.43511865234375,-0.1304645538330078,0.07246941328048706,-0.002053782343864441
1783079966908968200,3.45496826171875,-0.14217567443847656,0.08219099044799805,-0.06708523631095886
1783079966928817700,3.474817626953125,-0.06377124786376953,0.0495564341545105,-0.0132770836353302
1783079966948667100,3.494667236328125,0.06052398681640625,-0.021906495094299316,-0.009718790650367737
1783079966968516900,3.514516845703125,0.13686180114746094,-0.04612934589385986,-0.09861487150192261
1783079966988366000,3.534365966796875,0.10680770874023438,-0.0857667326927185,-0.09333212673664093
1783079967008215600,3.554215576171875,0.06642913818359375,-0.08731895685195923,-0.08296725153923035
1783079967028065000,3.57406494140625,0.03216552734375,-0.07677948474884033,-0.057687535881996155
1783079967047914500,3.59391455078125,-0.0864400863647461,-0.07897067070007324,-0.06567586958408356
1783079967067764000,3.613763916015625,-0.1594991683959961,-0.025471031665802002,-0.02830028533935547
1783079967087613400,3.633613525390625,-0.18193721771240234,0.0063841938972473145,0.022465571761131287
1783079967107463000,3.653462890625,-0.0675191879272461,-0.013058781623840332,0.05877627432346344
1783079967127312400,3.6733125,0.047636985778808594,-0.0063318610191345215,0.06701526790857315
1783079967147161900,3.693161865234375,0.08282661437988281,-0.008150041103363037,0.10621505975723267
1783079967167011300,3.71301123046875,0.04314136505126953,0.02266693115234375,0.10249599814414978
1783079967186860800,3.73286083984375,-0.02986907958984375,0.031877219676971436,0.06805053353309631
1783079967206710300,3.752710205078125,-0.045047760009765625,0.05111294984817505,0.08166781067848206
1783079967226559700,3.772559814453125,0.018827438354492188,0.027027666568756104,0.08525411784648895
1783079967246409200,3.7924091796875,0.07366657257080078,0.007101118564605713,0.03781561553478241
1783079967266258700,3.8122587890625,-0.009737968444824219,0.014917075634002686,0.0008180737495422363
1783079967286108200,3.832108154296875,-0.07630252838134766,0.025064945220947266,-0.006488516926765442
1783079967305957400,3.851957275390625,-0.06432628631591797,0.040107011795043945,-0.014649122953414917
1783079967325806800,3.871806884765625,-0.03450965881347656,0.00416642427444458,-0.0681433230638504
1783079967345656300,3.89165625,0.02406024932861328,-0.027871549129486084,-0.0897204726934433
1783079967365505800,3.911505859375,0.0875234603881836,-0.020618975162506104,-0.060252219438552856
1783079967385355300,3.931355224609375,0.1722860336303711,0.004461109638214111,0.01572170853614807
1783079967405204700,3.951204833984375,0.16213703155517578,0.02625197172164917,0.039268434047698975
1783079967425054200,3.97105419921875,0.011539459228515625,0.011788785457611084,0.016101717948913574
1783079967444903700,3.990903564453125,-0.11088848114013672,-0.005311727523803711,-0.04292500019073486
1783079967464753200,4.010753173828125,-0.07699108123779297,0.007314205169677734,-0.09787824749946594
1783079967484602600,4.0306025390625,0.01317596435546875,-0.031707584857940674,-0.04069626331329346
1783079967504452000,4.0504521484375,0.051871299743652344,-0.04077225923538208,0.03802986443042755
1783079967524263000,4.070262939453125,0.07804393768310547,-0.006795346736907959,0.009152233600616455
1783079967543958500,4.08995849609375,-0.04688835144042969,0.0021819472312927246,0.05752025544643402
1783079967564000000,4.11,-0.09131050109863281,0.005934655666351318,0.11390802264213562
1783079967583849700,4.129849609375,-0.046604156494140625,0.0314939022064209,0.062794029712677
1783079967603506700,4.149506591796875,-0.08219242095947266,0.01699542999267578,0.05268637835979462
1783079967623356000,4.16935595703125,-0.07948684692382812,0.03198397159576416,0.05278393626213074
1783079967643397600,4.189397705078125,-0.07687854766845703,0.06151038408279419,0.08280662447214127
1783079967663247400,4.209247314453125,-0.005023956298828125,0.016537368297576904,0.05227339267730713
1783079967682904300,4.228904296875,0.006493568420410156,0.0022125244140625,0.01566089689731598
1783079967702753500,4.24875341796875,0.043076515197753906,0.001441657543182373,0.008888855576515198
1783079967722795300,4.268795166015625,0.08066940307617188,0.011812746524810791,-0.005296677350997925
1783079967742491000,4.288490966796875,0.10309410095214844,-0.010546684265136719,-0.030236586928367615
1783079967762494200,4.308494140625,0.12738323211669922,-0.02736598253250122,-0.0641302764415741
1783079967782189800,4.32818994140625,0.07250404357910156,-0.005661487579345703,-0.050087109208106995
1783079967802039300,4.348039306640625,-0.03825950622558594,-0.0032277703285217285,-0.008641675114631653
1783079967821850000,4.36785009765625,-0.0853586196899414,-0.001973450183868408,-0.0420953631401062
1783079967841699300,4.38769921875,-0.1056356430053711,-0.005846560001373291,-0.02989305555820465
1783079967861741300,4.4077412109375,-0.06968307495117188,-0.007458508014678955,-0.009159430861473083
1783079967881618400,4.427618408203125,-0.0650491714477539,0.027459383010864258,-0.025379493832588196
1783079967901484800,4.44748486328125,-0.0006122589111328125,0.003659963607788086,-0.04441952705383301
1783079967921354500,4.4673544921875,0.10077953338623047,-0.02251225709915161,-0.05449357628822327
1783079967941143600,4.4871435546875,0.13647747039794922,-0.021046578884124756,-0.006802275776863098
1783079967960992300,4.5069921875,0.14139842987060547,0.007671952247619629,0.05415245145559311
1783079967980841200,4.52684130859375,0.019225120544433594,0.04215693473815918,0.0788910984992981
1783079968000690200,4.546690185546875,-0.08963871002197266,0.045353055000305176,0.045324571430683136
1783079968020539100,4.5665390625,-0.10039615631103516,0.020342350006103516,0.019296318292617798
1783079968040369200,4.586369140625,-0.034793853759765625,0.009597599506378174,0.03740634024143219
1783079968060049400,4.60604931640625,0.03781604766845703,-0.010476350784301758,0.05325601249933243
1783079968080071000,4.62607080078125,0.10827064514160156,-0.05429708957672119,-0.03067716956138611
1783079968099750400,4.64575048828125,0.07704639434814453,-0.02510446310043335,-0.14348985254764557
1783079968119790600,4.66579052734375,-0.015393257141113281,-0.051878929138183594,-0.05921661853790283
1783079968139639000,4.68563916015625,-0.07931709289550781,-0.023460984230041504,-0.02644689381122589
1783079968159487500,4.705487548828125,-0.06731033325195312,-0.026063382625579834,-0.041974544525146484
1783079968179336200,4.725336181640625,-0.06973552703857422,-0.044419825077056885,-0.09292426705360413
1783079968199185200,4.74518505859375,-0.060416221618652344,-0.040694475173950195,-0.052739471197128296
1783079968219034000,4.7650341796875,-0.06757926940917969,-0.01314312219619751,-0.005542084574699402
1783079968238883000,4.784883056640625,-0.06306743621826172,-0.011013031005859375,0.015311360359191895
1783079968258732300,4.804732177734375,-0.033390045166015625,-0.03149503469467163,0.00028070807456970215
1783079968278581800,4.824581787109375,-0.00011157989501953125,-0.0027706027030944824,0.016298234462738037
1783079968298430700,4.8444306640625,0.062137603759765625,0.03666967153549194,0.057147905230522156
1783079968318280200,4.8642802734375,0.041359901428222656,0.04529839754104614,0.059063658118247986
1783079968338129400,4.88412939453125,0.021355628967285156,0.005483150482177734,0.017467305064201355
1783079968357979000,4.903978759765625,0.0645895004272461,0.035372912883758545,-0.003194272518157959
1783079968377828000,4.923828125,0.04393577575683594,0.01986110210418701,0.0448492169380188
1783079968397677600,4.943677490234375,0.07030010223388672,0.03450101613998413,0.038825467228889465
1783079968417527000,4.963527099609375,0.024095535278320312,0.013250887393951416,0.0129300057888031
1783079968437376500,4.98337646484375,-0.029695510864257812,0.02822434902191162,-0.030862092971801758
1783079968457225700,5.003225830078125,-0.03325843811035156,0.04883396625518799,-0.049527063965797424
1783079968477075500,5.023075439453125,-0.02086639404296875,0.026885986328125,-0.06350748240947723
1783079968496924700,5.042924560546875,0.06970787048339844,0.0013763904571533203,-0.043221041560173035
1783079968516774100,5.062774169921875,0.08581733703613281,0.0015230774879455566,0.029295846819877625
1783079968536623600,5.08262353515625,0.09028244018554688,0.06328356266021729,0.02457571029663086
1783079968556473000,5.10247314453125,-0.013929367065429688,0.05836087465286255,0.03563784062862396
1783079968576322600,5.122322509765625,-0.12166595458984375,0.033915162086486816,0.029861509799957275
1783079968596172000,5.142172119140625,-0.09891319274902344,0.034820616245269775,0.05295936018228531
1783079968616021500,5.162021484375,0.01986217498779297,0.02281290292739868,0.05725255608558655
1783079968635870700,5.18187060546875,0.1161642074584961,-0.0584874153137207,-0.020664259791374207
1783079968655720200,5.20172021484375,0.07780838012695312,-0.06421756744384766,-0.09193186461925507
1783079968675569700,5.221569580078125,-0.04920673370361328,-0.06384056806564331,-0.04261477291584015
1783079968695419100,5.241419189453125,-0.08650493621826172,-0.05149877071380615,0.008509635925292969
1783079968715268600,5.2612685546875,-0.09513092041015625,-0.08024442195892334,-0.0336625874042511
1783079968735118000,5.2811181640625,-0.07583904266357422,-0.047931790351867676,-0.04195387661457062
1783079968754967600,5.300967529296875,-0.08490371704101562,-0.014016330242156982,0.06219588965177536
1783079968774817000,5.320817138671875,-0.05190086364746094,0.007175564765930176,0.09338334202766418
1783079968794666500,5.34066650390625,-0.059317588806152344,0.0017829537391662598,0.04916097968816757
1783079968814516000,5.360515869140625,-0.05961418151855469,0.01223534345626831,-0.009681493043899536
1783079968834365400,5.380365478515625,-0.03933525085449219,0.035456836223602295,0.05070263892412186
1783079968854215000,5.40021484375,0.010053634643554688,0.03748643398284912,0.10799603164196014
1783079968874064100,5.420064208984375,0.12941265106201172,0.0029793381690979004,0.031824931502342224
1783079968893894400,5.439894287109375,0.1918506622314453,-0.036695778369903564,-0.08407364785671234
1783079968913555500,5.459555419921875,0.1925210952758789,-0.020525455474853516,-0.11106717586517334
1783079968933407700,5.47940771484375,0.08236122131347656,-0.014804422855377197,-0.06123955547809601
1783079968953279000,5.499279052734375,-0.0033044815063476562,-0.0160101056098938,-0.07078200578689575
1783079968973318700,5.519318603515625,-0.053862571716308594,0.006928503513336182,-0.11636383831501007
1783079968993147600,5.539147705078125,-0.1213064193725586,0.02359706163406372,-0.04758858680725098
1783079969012807200,5.55880712890625,-0.043145179748535156,0.07532763481140137,-0.02226381003856659
1783079969032658400,5.578658447265625,-0.05102348327636719,0.030540645122528076,0.059035077691078186
1783079969052529000,5.59852880859375,0.05917930603027344,0.041288673877716064,-0.05552688241004944
1783079969072549000,5.618549072265625,0.12877941131591797,-0.012385845184326172,0.0477449893951416
1783079969092207900,5.638207763671875,0.16617774963378906,0.056427180767059326,0.07768992334604263
1783079969112078300,5.658078369140625,0.1171579360961914,0.022199690341949463,0.12641121447086334
1783079969132117200,5.6781171875,-0.04094123840332031,0.0030928850173950195,0.0836937427520752
1783079969151964700,5.697964599609375,-0.12434101104736328,0.002065122127532959,0.06657256931066513
1783079969171793400,5.71779345703125,-0.16605186462402344,0.01794886589050293,0.0721907764673233
1783079969191453000,5.737452880859375,-0.12352848052978516,-0.003839433193206787,0.05144071578979492
1783079969211304000,5.757303955078125,-0.052397727966308594,-0.06609660387039185,-0.03281058371067047
1783079969231155000,5.777155029296875,0.007243156433105469,-0.03480595350265503,-0.09133350849151611
1783079969251025200,5.797025146484375,-0.029836654663085938,-0.07420903444290161,-0.02824823558330536
1783079969271044900,5.817044921875,0.0014982223510742188,-0.055838048458099365,-0.016454845666885376
1783079969290723000,5.83672314453125,0.008527755737304688,-0.07788711786270142,-0.11123180389404297
1783079969310743000,5.856742919921875,0.010571479797363281,-0.0704643726348877,-0.13398392498493195
1783079969330401800,5.87640185546875,-0.06833267211914062,-0.08691293001174927,-0.07542233169078827
1783079969350272000,5.89627197265625,-0.10751628875732422,-0.04275447130203247,-0.07917866110801697
1783079969370292000,5.9162919921875,-0.0877370834350586,0.011823058128356934,-0.10013845562934875
1783079969389970000,5.935969970703125,-0.11040210723876953,-0.02200263738632202,-0.031599074602127075
1783079969409990100,5.955990234375,-0.035216331481933594,0.0432896614074707,-0.02376788854598999
1783079969429668400,5.97566845703125,-0.00445556640625,0.06327515840530396,0.037117764353752136
1783079969449707800,5.995707763671875,0.10618019104003906,0.05619215965270996,0.07197460532188416
1783079969469536300,6.015536376953125,0.1716289520263672,0.05150175094604492,0.07765364646911621
1783079969489195300,6.0351953125,0.1635875701904297,0.04777592420578003,0.07105587422847748
1783079969509046500,6.055046630859375,0.10514354705810547,0.0886421799659729,0.11229901015758514
1783079969528916700,6.074916748046875,-0.03005695343017578,0.052105069160461426,0.1245960146188736
1783079969548952000,6.0949521484375,-0.0058689117431640625,0.010316193103790283,0.02996794879436493
1783079969568746200,6.114746337890625,-0.09128284454345703,0.046893417835235596,0.013520479202270508
1783079969588443600,6.134443603515625,-0.06493186950683594,0.059587061405181885,0.0794757604598999
1783079969608294700,6.154294677734375,-0.0674591064453125,0.07729905843734741,0.06105302274227142
1783079969628164600,6.17416455078125,-0.021728515625,0.0320701003074646,0.009531423449516296
1783079969648184600,6.1941845703125,0.04098224639892578,-0.008663713932037354,0.04526197910308838
1783079969667862500,6.213862548828125,0.12743473052978516,-0.009206056594848633,0.04782018065452576
1783079969687882500,6.233882568359375,0.07957935333251953,-0.025744199752807617,0.017078980803489685
1783079969707561000,6.25356103515625,-0.07989883422851562,-0.023395299911499023,-0.02207067608833313
1783079969727600000,6.27360009765625,-0.15325260162353516,-0.030862629413604736,-0.0443727970123291
1783079969747428600,6.2934287109375,-0.11599254608154297,-0.020706892013549805,-0.05400298535823822
1783079969767087600,6.313087646484375,0.019171714782714844,-0.04183340072631836,-0.050350114703178406
1783079969786942700,6.332942626953125,0.09914875030517578,-0.03155779838562012,-0.10679776966571808
1783079969806846700,6.3528466796875,0.05433464050292969,-0.005913078784942627,-0.043587327003479004
1783079969826847500,6.372847412109375,-0.03042888641357422,0.010128378868103027,0.047086894512176514
1783079969846679800,6.3926796875,-0.07781696319580078,0.006796538829803467,0.0502617210149765
1783079969866392300,6.412392333984375,-0.0152587890625,0.036012232303619385,-0.0459243506193161
1783079969886374400,6.43237451171875,0.010390281677246094,0.01524120569229126,-0.008472248911857605
1783079969906053400,6.452053466796875,-0.003912925720214844,0.02371346950531006,0.02269221842288971
1783079969926093000,6.472093017578125,0.0009765625,0.05994302034378052,0.002297326922416687
1783079969945940700,6.491940673828125,-0.040619850158691406,-0.0000711679458618164,0.001125246286392212
1783079969965789000,6.511788818359375,0.0001583099365234375,0.015437543392181396,-0.03886055946350098
1783079969985618200,6.5316181640625,-0.009124755859375,0.0363430380821228,-0.006521984934806824
1783079970005298000,6.5512978515625,0.011862754821777344,0.00918436050415039,-0.0029515624046325684
1783079970025338000,6.571338134765625,0.013621330261230469,-0.017387866973876953,-0.045244500041007996
1783079970045167000,6.5911669921875,0.043181419372558594,-0.031027615070343018,-0.0524553507566452
1783079970064827100,6.6108271484375,0.0880117416381836,-0.06668198108673096,-0.11729744076728821
1783079970084698000,6.630697998046875,0.14281558990478516,-0.05729389190673828,-0.11372314393520355
1783079970104730000,6.650730224609375,0.0292205810546875,-0.09666228294372559,-0.039685606956481934
1783079970124510200,6.67051025390625,-0.06160259246826172,-0.0813630223274231,0.005165129899978638
1783079970144416000,6.690416015625,-0.1470022201538086,-0.0030701756477355957,-0.01655392348766327
1783079970164075500,6.710075439453125,-0.18837451934814453,-0.0038217902183532715,-0.07092677056789398
1783079970183926800,6.7299267578125,-0.10643196105957031,0.050975501537323,-0.06197249889373779
1783079970203797200,6.74979736328125,0.046669960021972656,0.027920842170715332,0.10767858475446701
1783079970223821000,6.769821044921875,0.22975826263427734,0.07070022821426392,0.12274521589279175
1783079970243517700,6.789517578125,0.1462879180908203,-0.001261293888092041,0.05257822573184967
1783079970263367700,6.80936767578125,0.5376853942871094,0.07143408060073853,-0.0006298720836639404
1783079970283218000,6.829218017578125,-0.28264522552490234,0.08008605241775513,0.06659859418869019
1783079970303083300,6.849083251953125,-0.33893489837646484,0.0779486894607544,0.08176323771476746
1783079970323068700,6.869068603515625,-0.1512622833251953,0.1880849003791809,0.009151503443717957
1783079970342761200,6.88876123046875,-0.017777442932128906,0.03641009330749512,-0.011161774396896362
