time,seconds_elapsed,z,y,x
1783080976235592700,0.1205927734375,9.815957069396973,0.06580262631177902,-0.06161518394947052
1783080976255305500,0.140305419921875,9.830313682556152,0.10408778488636017,-0.03768695518374443
1783080976295135700,0.1801357421875,9.835099220275879,0.08015955984592438,-0.03290131315588951
1783080976334688000,0.21968798828125,9.8207426071167,0.08973085135221481,-0.03290131315588951
1783080976374539300,0.259539306640625,9.8207426071167,0.08015955984592438,-0.04247260093688965
1783080976414101500,0.2991015625,9.863813400268555,0.061016976833343506,-0.01375873014330864
1783080976453949700,0.33894970703125,9.835099220275879,0.08973085135221481,-0.047258246690034866
1783080976493479200,0.378479248046875,9.830313682556152,0.08973085135221481,-0.03768695518374443
1783080976533158000,0.418157958984375,9.825528144836426,0.061016976833343506,-0.008973085321485996
1783080976573025300,0.458025390625,9.825528144836426,0.08973085135221481,-0.047258246690034866
1783080976612554800,0.4975546875,9.830313682556152,0.0849452018737793,-0.03290131315588951
1783080976652422000,0.537421875,9.835099220275879,0.08015955984592438,-0.04247260093688965
1783080976691951400,0.576951416015625,9.835099220275879,0.09451649338006973,-0.04247260093688965
1783080976731837400,0.61683740234375,9.830313682556152,0.061016976833343506,-0.03768695518374443
1783080976771325200,0.6563251953125,9.815957069396973,0.0849452018737793,-0.018544375896453857
1783080976811046400,0.69604638671875,9.830313682556152,0.09451649338006973,-0.04247260093688965
1783080976850913300,0.735913330078125,9.835099220275879,0.0849452018737793,-0.03290131315588951
1783080976870572300,0.755572265625,9.8207426071167,0.05144568532705307,-0.01375873014330864
1783080976890442500,0.7754423828125,9.835099220275879,0.07058826833963394,-0.023330021649599075
1783080976910481400,0.7954814453125,9.8207426071167,0.08015955984592438,-0.03768695518374443
1783080976930328600,0.81532861328125,9.849455833435059,0.08015955984592438,-0.04247260093688965
1783080976950157000,0.835156982421875,9.844670295715332,0.08015955984592438,-0.03290131315588951
1783080976969835800,0.854835693359375,9.839884757995605,0.07058826833963394,-0.04247260093688965
1783080976989860000,0.874860107421875,9.844670295715332,0.07537391036748886,-0.03290131315588951
1783080977009572400,0.894572265625,9.815957069396973,0.09451649338006973,-0.03290131315588951
1783080977029573600,0.91457373046875,9.835099220275879,0.06580262631177902,-0.03290131315588951
1783080977049406000,0.934406005859375,9.8207426071167,0.08015955984592438,-0.028115665540099144
1783080977069099000,0.95409912109375,9.835099220275879,0.0849452018737793,-0.03768695518374443
1783080977088912000,0.973911865234375,9.8207426071167,0.07058826833963394,-0.03290131315588951
1783080977108774700,0.993774658203125,9.830313682556152,0.06580262631177902,-0.028115665540099144
1783080977128730000,1.013730224609375,9.815957069396973,0.07537391036748886,-0.023330021649599075
1783080977148499200,1.033499267578125,9.839884757995605,0.08015955984592438,-0.01375873014330864
1783080977168311000,1.05331103515625,9.844670295715332,0.06580262631177902,-0.052043892443180084
1783080977188161300,1.073161376953125,9.815957069396973,0.07058826833963394,-0.03290131315588951
1783080977208030700,1.09303076171875,9.849455833435059,0.07058826833963394,-0.023330021649599075
1783080977228069000,1.113069091796875,9.844670295715332,0.07058826833963394,-0.023330021649599075
1783080977247900700,1.132900634765625,9.830313682556152,0.07537391036748886,-0.04247260093688965
1783080977267596800,1.1525966796875,9.835099220275879,0.08015955984592438,-0.04247260093688965
1783080977287446800,1.17244677734375,9.835099220275879,0.07537391036748886,-0.028115665540099144
1783080977307311900,1.192311767578125,9.844670295715332,0.0849452018737793,-0.03768695518374443
1783080977327312600,1.212312744140625,9.844670295715332,0.061016976833343506,-0.028115665540099144
1783080977347140400,1.232140380859375,9.835099220275879,0.07537391036748886,-0.03290131315588951
1783080977366799400,1.25179931640625,9.825528144836426,0.08015955984592438,-0.028115665540099144
1783080977386650000,1.271650146484375,9.844670295715332,0.07058826833963394,-0.03290131315588951
1783080977406520000,1.29152001953125,9.844670295715332,0.08015955984592438,-0.03768695518374443
1783080977426539500,1.31153955078125,9.839884757995605,0.0849452018737793,-0.03768695518374443
1783080977446197800,1.33119775390625,9.825528144836426,0.06580262631177902,-0.052043892443180084
1783080977466032600,1.35103271484375,9.830313682556152,0.08973085135221481,-0.028115665540099144
1783080977485748000,1.370748046875,9.830313682556152,0.08015955984592438,-0.03290131315588951
1783080977505769700,1.390769775390625,9.839884757995605,0.07537391036748886,-0.03290131315588951
1783080977525788700,1.41078857421875,9.839884757995605,0.07537391036748886,-0.03768695518374443
1783080977545446100,1.430446044921875,9.849455833435059,0.08015955984592438,-0.028115665540099144
1783080977565295900,1.4502958984375,9.825528144836426,0.061016976833343506,-0.04247260093688965
1783080977585145300,1.470145263671875,9.8207426071167,0.08973085135221481,-0.03290131315588951
1783080977605014300,1.49001416015625,9.825528144836426,0.061016976833343506,-0.03768695518374443
1783080977625033200,1.510033203125,9.835099220275879,0.07537391036748886,-0.04247260093688965
1783080977644691000,1.52969091796875,9.830313682556152,0.08973085135221481,-0.03768695518374443
1783080977664560400,1.549560302734375,9.815957069396973,0.08973085135221481,-0.03290131315588951
1783080977684601900,1.569601806640625,9.839884757995605,0.06580262631177902,-0.03290131315588951
1783080977714367000,1.599366943359375,9.844670295715332,0.061016976833343506,-0.028115665540099144
1783080977734214100,1.619214111328125,9.830313682556152,0.0849452018737793,-0.04247260093688965
1783080977754061600,1.6390615234375,9.825528144836426,0.09451649338006973,-0.028115665540099144
1783080977773909500,1.658909423828125,9.839884757995605,0.08015955984592438,-0.018544375896453857
1783080977793742300,1.678742431640625,9.835099220275879,0.0849452018737793,-0.023330021649599075
1783080977813455400,1.698455322265625,9.825528144836426,0.08015955984592438,-0.047258246690034866
1783080977833457000,1.718456787109375,9.835099220275879,0.08015955984592438,-0.04247260093688965
1783080977853285600,1.73828564453125,9.835099220275879,0.08973085135221481,-0.03768695518374443
1783080977892796700,1.777796630859375,9.839884757995605,0.04666004329919815,-0.028115665540099144
1783080977932517600,1.817517578125,9.835099220275879,0.07058826833963394,-0.03290131315588951
1783080977972384300,1.85738427734375,9.849455833435059,0.08015955984592438,-0.03768695518374443
1783080978011913200,1.896913330078125,9.830313682556152,0.07537391036748886,-0.03768695518374443
1783080978051780000,1.936780029296875,9.844670295715332,0.07058826833963394,-0.03290131315588951
1783080978091309300,1.976309326171875,9.825528144836426,0.07058826833963394,-0.04247260093688965
1783080978131195400,2.0161953125,9.825528144836426,0.05623133108019829,-0.03768695518374443
1783080978170683100,2.05568310546875,9.835099220275879,0.07058826833963394,-0.04247260093688965
1783080978210404400,2.095404296875,9.839884757995605,0.08973085135221481,-0.03290131315588951
1783080978250271200,2.135271240234375,9.844670295715332,0.09451649338006973,-0.023330021649599075
1783080978289973500,2.174973388671875,9.835099220275879,0.07537391036748886,-0.03290131315588951
1783080978329686500,2.2146865234375,9.835099220275879,0.06580262631177902,-0.03290131315588951
1783080978369231400,2.2542314453125,9.830313682556152,0.07058826833963394,-0.028115665540099144
1783080978408892200,2.29389208984375,9.8207426071167,0.061016976833343506,-0.03768695518374443
1783080978448722200,2.33372216796875,9.844670295715332,0.08015955984592438,-0.047258246690034866
1783080978488270600,2.3732705078125,9.839884757995605,0.08973085135221481,-0.028115665540099144
1783080978528160500,2.413160400390625,9.815957069396973,0.08973085135221481,-0.04247260093688965
1783080978567688700,2.452688720703125,9.825528144836426,0.06580262631177902,-0.052043892443180084
1783080978607386000,2.49238623046875,9.81117057800293,0.0849452018737793,-0.03290131315588951
1783080978647253000,2.5322529296875,9.830313682556152,0.07537391036748886,-0.047258246690034866
1783080978686970600,2.571970703125,9.806385040283203,0.061016976833343506,-0.023330021649599075
1783080978726665700,2.611665771484375,9.830313682556152,0.07537391036748886,-0.03290131315588951
1783080978766174000,2.651174072265625,9.830313682556152,0.06580262631177902,-0.052043892443180084
1783080978805873400,2.690873291015625,9.8207426071167,0.08015955984592438,-0.04247260093688965
1783080978845552600,2.730552734375,9.8207426071167,0.07058826833963394,-0.03290131315588951
1783080978885442800,2.77044287109375,9.815957069396973,0.07537391036748886,-0.023330021649599075
1783080978925160200,2.81016015625,9.8207426071167,0.08015955984592438,-0.023330021649599075
1783080978964855300,2.849855224609375,9.801599502563477,0.07537391036748886,-0.04247260093688965
1783080979004551400,2.889551513671875,9.835099220275879,0.07537391036748886,-0.03290131315588951
1783080979044248300,2.929248291015625,9.835099220275879,0.06580262631177902,-0.04247260093688965
1783080979083945700,2.96894580078125,9.839884757995605,0.07537391036748886,-0.03768695518374443
1783080979123643100,3.00864306640625,9.830313682556152,0.09451649338006973,-0.047258246690034866
1783080979163341000,3.048341064453125,9.825528144836426,0.08015955984592438,-0.03290131315588951
1783080979203039000,3.0880390625,9.844670295715332,0.07058826833963394,-0.023330021649599075
1783080979242737000,3.12773681640625,9.81117057800293,0.07058826833963394,-0.04247260093688965
1783080979282435000,3.16743505859375,9.835099220275879,0.06580262631177902,-0.03768695518374443
1783080979322133200,3.20713330078125,9.830313682556152,0.06580262631177902,-0.023330021649599075
1783080979361831400,3.24683154296875,9.835099220275879,0.07058826833963394,-0.04247260093688965
1783080979401529600,3.286529541015625,9.825528144836426,0.06580262631177902,-0.047258246690034866
1783080979441227500,3.3262275390625,9.815957069396973,0.061016976833343506,-0.03290131315588951
1783080979480925700,3.36592578125,9.839884757995605,0.07537391036748886,-0.03290131315588951
1783080979520623900,3.405623779296875,9.835099220275879,0.08973085135221481,-0.03768695518374443
1783080979560322000,3.445322021484375,9.815957069396973,0.07058826833963394,-0.03290131315588951
1783080979600020200,3.485020263671875,9.830313682556152,0.08973085135221481,-0.03290131315588951
1783080979639718400,3.524718505859375,9.844670295715332,0.07058826833963394,-0.028115665540099144
1783080979679416600,3.56441650390625,9.839884757995605,0.07058826833963394,-0.03290131315588951
1783080979718944500,3.603944580078125,9.8207426071167,0.08015955984592438,-0.04247260093688965
1783080979758629400,3.64362939453125,9.839884757995605,0.061016976833343506,-0.03768695518374443
1783080979798497300,3.683497314453125,9.839884757995605,0.08973085135221481,-0.023330021649599075
1783080979838007800,3.7230078125,9.839884757995605,0.06580262631177902,-0.0568295381963253
1783080979877897700,3.762897705078125,9.825528144836426,0.07058826833963394,-0.01375873014330864
1783080979897556000,3.782555908203125,9.8207426071167,0.061016976833343506,-0.03290131315588951
1783080979917426200,3.80242626953125,9.830313682556152,0.0849452018737793,-0.028115665540099144
1783080979937445600,3.822445556640625,9.815957069396973,0.08015955984592438,-0.04247260093688965
1783080979957123600,3.84212353515625,9.839884757995605,0.08015955984592438,-0.023330021649599075
1783080979977143300,3.862143310546875,9.844670295715332,0.07537391036748886,-0.03290131315588951
1783080979996801800,3.8818017578125,9.8207426071167,0.08015955984592438,-0.028115665540099144
1783080980016652000,3.901652099609375,9.830313682556152,0.06580262631177902,-0.023330021649599075
1783080980036502300,3.921502197265625,9.825528144836426,0.08973085135221481,-0.0568295381963253
1783080980056371700,3.941371826171875,9.844670295715332,0.07537391036748886,-0.03290131315588951
1783080980076391000,3.961390869140625,9.839884757995605,0.0849452018737793,-0.023330021649599075
1783080980096049000,3.981048828125,9.844670295715332,0.07537391036748886,-0.028115665540099144
1783080980115899000,4.00089892578125,9.8207426071167,0.08015955984592438,-0.04247260093688965
1783080980135748600,4.02074853515625,9.825528144836426,0.0849452018737793,-0.03768695518374443
1783080980155617800,4.04061767578125,9.830313682556152,0.07058826833963394,-0.0568295381963253
1783080980175637000,4.060636962890625,9.830313682556152,0.09451649338006973,-0.03290131315588951
1783080980195294700,4.080294677734375,9.825528144836426,0.06580262631177902,-0.023330021649599075
1783080980215144700,4.100144775390625,9.8207426071167,0.06580262631177902,-0.047258246690034866
1783080980234994400,4.119994384765625,9.825528144836426,0.07537391036748886,-0.028115665540099144
1783080980254863600,4.139863525390625,9.849455833435059,0.07537391036748886,-0.052043892443180084
1783080980274882600,4.159882568359375,9.815957069396973,0.08973085135221481,-0.03290131315588951
1783080980294540300,4.179540283203125,9.844670295715332,0.10408778488636017,-0.03768695518374443
1783080980314390300,4.199390380859375,9.8207426071167,0.07537391036748886,-0.028115665540099144
1783080980334240000,4.219239990234375,9.8207426071167,0.07058826833963394,-0.023330021649599075
1783080980354109200,4.239109130859375,9.8207426071167,0.08015955984592438,-0.047258246690034866
1783080980374132000,4.259132080078125,9.825528144836426,0.08015955984592438,-0.03768695518374443
1783080980393827300,4.278827392578125,9.849455833435059,0.0849452018737793,-0.04247260093688965
1783080980413676800,4.2986767578125,9.839884757995605,0.0849452018737793,-0.04247260093688965
1783080980433522200,4.318522216796875,9.835099220275879,0.06580262631177902,-0.023330021649599075
1783080980453333500,4.33833349609375,9.801599502563477,0.08973085135221481,-0.023330021649599075
1783080980473203000,4.358202880859375,9.839884757995605,0.06580262631177902,-0.028115665540099144
1783080980493222100,4.37822216796875,9.825528144836426,0.0849452018737793,-0.052043892443180084
1783080980512879900,4.3978798828125,9.830313682556152,0.08973085135221481,-0.052043892443180084
1783080980532729900,4.417729736328125,9.8207426071167,0.07058826833963394,-0.028115665540099144
1783080980552579600,4.43757958984375,9.844670295715332,0.07058826833963394,-0.028115665540099144
1783080980572429300,4.45742919921875,9.830313682556152,0.06580262631177902,-0.018544375896453857
1783080980592278800,4.47727880859375,9.825528144836426,0.07537391036748886,-0.03290131315588951
1783080980612147700,4.497147705078125,9.815957069396973,0.08973085135221481,-0.0568295381963253
1783080980632166700,4.517166748046875,9.825528144836426,0.08015955984592438,-0.03290131315588951
1783080980661759500,4.546759521484375,9.849455833435059,0.06580262631177902,-0.023330021649599075
1783080980681841000,4.5668408203125,9.8207426071167,0.07537391036748886,-0.023330021649599075
1783080980701698800,4.58669873046875,9.830313682556152,0.06580262631177902,-0.023330021649599075
1783080980741347600,4.62634765625,9.839884757995605,0.08973085135221481,-0.052043892443180084
1783080980781045000,4.666044921875,9.825528144836426,0.06580262631177902,-0.03290131315588951
1783080980820742400,4.705742431640625,9.830313682556152,0.07537391036748886,-0.03290131315588951
1783080980860440300,4.7454404296875,9.830313682556152,0.08973085135221481,-0.03768695518374443
1783080980900138200,4.78513818359375,9.839884757995605,0.07537391036748886,-0.023330021649599075
1783080980939836200,4.824836181640625,9.835099220275879,0.07537391036748886,-0.03290131315588951
1783080980979534300,4.864534423828125,9.8207426071167,0.08973085135221481,-0.03290131315588951
1783080981019175400,4.904175537109375,9.849455833435059,0.05623133108019829,-0.028115665540099144
1783080981058745600,4.94374560546875,9.844670295715332,0.08015955984592438,-0.03290131315588951
1783080981098425300,4.98342529296875,9.835099220275879,0.061016976833343506,-0.03768695518374443
1783080981138127000,5.023127197265625,9.815957069396973,0.061016976833343506,-0.03768695518374443
1783080981178035500,5.063035400390625,9.8207426071167,0.07537391036748886,-0.047258246690034866
1783080981217522200,5.102522216796875,9.849455833435059,0.07058826833963394,-0.03768695518374443
1783080981257242400,5.142242431640625,9.830313682556152,0.08973085135221481,-0.03290131315588951
1783080981296920000,5.181920166015625,9.825528144836426,0.08015955984592438,-0.04247260093688965
1783080981336809200,5.221809326171875,9.825528144836426,0.08015955984592438,-0.03290131315588951
1783080981376506600,5.261506591796875,9.8207426071167,0.07537391036748886,-0.028115665540099144
1783080981416057000,5.30105712890625,9.835099220275879,0.07537391036748886,-0.04247260093688965
1783080981455771400,5.340771484375,9.839884757995605,0.09451649338006973,-0.03768695518374443
1783080981495448600,5.380448486328125,9.859027862548828,0.07537391036748886,-0.028115665540099144
1783080981535110700,5.420110595703125,9.815957069396973,0.06580262631177902,-0.03768695518374443
1783080981574999300,5.459999267578125,9.815957069396973,0.07537391036748886,-0.03768695518374443
1783080981614696400,5.499696533203125,9.830313682556152,0.07058826833963394,-0.03768695518374443
1783080981654412800,5.539412841796875,9.830313682556152,0.07537391036748886,-0.03768695518374443
1783080981693899800,5.578899658203125,9.830313682556152,0.0849452018737793,-0.03290131315588951
1783080981733620200,5.6186201171875,9.825528144836426,0.0849452018737793,-0.04247260093688965
1783080981773298000,5.6582978515625,9.825528144836426,0.0849452018737793,-0.03290131315588951
1783080981812998100,5.697998046875,9.844670295715332,0.0849452018737793,-0.03768695518374443
1783080981852886800,5.73788671875,9.839884757995605,0.08015955984592438,-0.028115665540099144
1783080981892583700,5.777583740234375,9.825528144836426,0.0849452018737793,-0.04247260093688965
1783080981932300300,5.81730029296875,9.844670295715332,0.08973085135221481,-0.03290131315588951
1783080981971786800,5.856786865234375,9.8207426071167,0.08015955984592438,-0.03290131315588951
1783080982011507500,5.896507568359375,9.839884757995605,0.0849452018737793,-0.04247260093688965
1783080982051373800,5.936373779296875,9.835099220275879,0.07537391036748886,-0.028115665540099144
1783080982090883000,5.975883056640625,9.844670295715332,0.08973085135221481,-0.03768695518374443
1783080982130791700,6.015791748046875,9.839884757995605,0.08015955984592438,-0.03768695518374443
1783080982170466800,6.055466796875,9.830313682556152,0.08973085135221481,-0.023330021649599075
1783080982209996000,6.09499609375,9.825528144836426,0.05623133108019829,-0.04247260093688965
1783080982249863400,6.134863525390625,9.830313682556152,0.0849452018737793,-0.04247260093688965
1783080982289392600,6.174392578125,9.849455833435059,0.06580262631177902,-0.03768695518374443
1783080982329279000,6.214279052734375,9.825528144836426,0.07058826833963394,-0.03768695518374443
1783080982368955400,6.253955322265625,9.849455833435059,0.07537391036748886,-0.04247260093688965
1783080982408485600,6.293485595703125,9.8207426071167,0.0849452018737793,-0.03768695518374443
1783080982448357000,6.333357177734375,9.825528144836426,0.07058826833963394,-0.03768695518374443
1783080982488055600,6.3730556640625,9.849455833435059,0.0849452018737793,-0.028115665540099144
1783080982527769300,6.412769287109375,9.839884757995605,0.07537391036748886,-0.03768695518374443
1783080982567276800,6.45227685546875,9.825528144836426,0.0849452018737793,-0.03290131315588951
1783080982606975700,6.491975830078125,9.81117057800293,0.07537391036748886,-0.028115665540099144
1783080982646674700,6.5316748046875,9.835099220275879,0.08973085135221481,-0.03290131315588951
1783080982686542300,6.571542236328125,9.839884757995605,0.0849452018737793,-0.03290131315588951
1783080982726241300,6.6112412109375,9.830313682556152,0.07537391036748886,-0.04247260093688965
1783080982765959200,6.650959228515625,9.78245735168457,0.06580262631177902,-0.028115665540099144
