time,seconds_elapsed,z,y,x
1783080296810185000,0.11318505859375,-0.0023968431632965803,-0.10785794258117676,0.4403533637523651
1783080296829881000,0.132881103515625,-0.00985368900001049,0.08961530029773712,0.1910816729068756
1783080296849731000,0.15273095703125,0.023702116683125496,0.2872216999530792,-0.013848427683115005
1783080296869581000,0.1725810546875,0.07217161357402802,0.3692470192909241,-0.062317922711372375
1783080296889430800,0.1924306640625,0.12703268229961395,0.30959224700927734,0.0035952648613601923
1783080296909435000,0.212434814453125,0.1898832470178604,0.20040272176265717,0.10639320313930511
1783080296929285000,0.23228515625,0.20532956719398499,0.07097318768501282,0.16498270630836487
1783080296948981200,0.251981201171875,0.16165375709533691,0.023568958044052124,0.140481635928154
1783080296968831200,0.271831298828125,0.09933583438396454,-0.04340949282050133,0.04673844203352928
1783080296988681200,0.29168115234375,0.10306425392627716,-0.011451584286987782,-0.07297056168317795
1783080297008685300,0.311685302734375,0.1478053331375122,0.1045289933681488,-0.14807164669036865
1783080297028381200,0.331381103515625,0.16431692242622375,0.0762995108962059,-0.1363537460565567
1783080297048231200,0.351231201171875,0.20266640186309814,0.12050794810056686,-0.033555805683135986
1783080297068081200,0.3710810546875,0.18828535079956055,0.1567269116640091,0.07070687413215637
1783080297087931100,0.39093115234375,0.13555480539798737,0.22863221168518066,0.1346226930618286
1783080297107935200,0.410935302734375,0.11424952745437622,0.30533120036125183,0.15273217856884003
1783080297127631400,0.43063134765625,0.18455693125724792,0.24674169719219208,0.15699322521686554
1783080297147443000,0.45044287109375,0.27656906843185425,0.04647212475538254,0.16604797542095184
1783080297167331300,0.470331298828125,0.33249542117118835,-0.11904320865869522,0.13781848549842834
1783080297187181300,0.490181396484375,0.33302804827690125,-0.04713791608810425,0.11118689179420471
1783080297207185400,0.510185302734375,0.25326642394065857,0.2408827394247055,0.10479531437158585
1783080297226881500,0.529881591796875,0.16484954953193665,0.3154512047767639,0.09254477918148041
1783080297246731500,0.5497314453125,0.1573926955461502,0.06831002980470657,0.0456731803715229
1783080297266581500,0.56958154296875,0.18722008168697357,-0.1296958476305008,-0.050600022077560425
1783080297286431500,0.589431396484375,0.2888196110725403,-0.15206637978553772,-0.1315600574016571
1783080297306435600,0.609435546875,0.3921501636505127,0.023568958044052124,-0.07350318878889084
1783080297326285800,0.629285888671875,0.3761712312698364,0.3122554123401642,0.07177213579416275
1783080297346136000,0.649135986328125,0.3724428117275238,0.2973417043685913,0.19534271955490112
1783080297365986300,0.668986328125,0.3394196331501007,-0.10253162682056427,0.1777658760547638
1783080297385853200,0.688853271484375,0.2330264151096344,-0.42903491854667664,0.024900536984205246
1783080297405755000,0.7087548828125,0.18722008168697357,-0.3779022693634033,-0.15765902400016785
1783080297425600000,0.72860009765625,0.1861548274755478,-0.13502216339111328,-0.25672852993011475
1783080297445387000,0.748386962890625,0.15526217222213745,0.027297381311655045,-0.2354232668876648
1783080297465237000,0.768237060546875,0.10892320424318314,0.054994236677885056,-0.13741901516914368
1783080297485087000,0.7880869140625,0.09614004194736481,0.1806953400373459,-0.026098959147930145
1783080297504937000,0.80793701171875,0.10839057713747025,0.27710169553756714,0.04194475710391998
1783080297524787000,0.827786865234375,0.07536740601062775,0.1237037405371666,0.0003994738799519837
1783080297544637000,0.847636962890625,0.009321057237684727,-0.060986343771219254,-0.10599373281002045
1783080297564487000,0.86748681640625,-0.07962846010923386,-0.1760348230600357,-0.24714116752147675
1783080297584321500,0.887321533203125,-0.09400951862335205,-0.13235901296138763,-0.3334275186061859
1783080297604036600,0.90703662109375,-0.09081372618675232,-0.0727042406797409,-0.34621068835258484
1783080297624039700,0.927039794921875,-0.08602003753185272,-0.21065588295459747,-0.2956106662750244
1783080297643870000,0.946869873046875,-0.06524740159511566,-0.24634221196174622,-0.16192007064819336
1783080297663531000,0.966531005859375,-0.07004108279943466,-0.1201084777712822,-0.03621896356344223
1783080297683403300,0.9864033203125,-0.12064110487699509,-0.11371689289808273,0.003062632866203785
1783080297703443700,1.006443603515625,-0.17816534638404846,-0.25433170795440674,-0.06817687302827835
1783080297723292400,1.02629248046875,-0.2095906287431717,-0.27830013632774353,-0.16564849019050598
1783080297743126000,1.0461259765625,-0.25486433506011963,-0.15845796465873718,-0.20506325364112854
1783080297762840000,1.065840087890625,-0.29574382305145264,0.02516685426235199,-0.15286533534526825
1783080297782827300,1.0858271484375,-0.251135915517807,0.12210584431886673,-0.03675159439444542
1783080297802540800,1.105540771484375,-0.1296958476305008,0.1002679392695427,0.13888375461101532
1783080297822528000,1.125528076171875,-0.04607265070080757,-0.011984216049313545,0.2757701277732849
1783080297842221800,1.145221923828125,0.01784316636621952,-0.3704454302787781,0.26511749625205994
1783080297862039600,1.16503955078125,-0.03914843872189522,-0.5508744716644287,0.14367742836475372
1783080297881929000,1.184928955078125,-0.2474074810743332,-0.4689823091030121,-0.037816859781742096
1783080297901795300,1.20479541015625,-0.4709796905517578,-0.1483379602432251,-0.20026956498622894
1783080297921781500,1.224781494140625,-0.54927659034729,0.3074617087841034,-0.22903168201446533
1783080297941478700,1.244478759765625,-0.434760719537735,0.508263885974884,-0.05752423778176308
1783080297961329700,1.26432958984375,-0.20692746341228485,0.2739059031009674,0.19374482333660126
1783080297981195800,1.28419580078125,-0.030626330524683,-0.02210422046482563,0.38282912969589233
1783080298001197300,1.304197265625,0.0007989477599039674,-0.05139897018671036,0.42543965578079224
1783080298021030100,1.324030029296875,-0.05139897018671036,0.06404897570610046,0.3482080399990082
1783080298040743200,1.3437431640625,-0.1249021589756012,0.10346373170614243,0.17829850316047668
1783080298060730000,1.363730224609375,-0.11318425834178925,0.06191844865679741,-0.010652636177837849
1783080298080427500,1.383427490234375,-0.016245270147919655,0.08748477697372437,-0.1310274302959442
1783080298100294400,1.40329443359375,0.06205160543322563,0.09760478138923645,-0.16192007064819336
1783080298120280800,1.42328076171875,0.09827057272195816,0.05446160212159157,-0.12357058376073837
1783080298139978200,1.442978271484375,0.11797794699668884,0.06404897570610046,-0.05113265663385391
1783080298159829200,1.462829345703125,0.13608743250370026,0.1279647946357727,0.014247900806367397
1783080298179695600,1.482695556640625,0.18935060501098633,0.11784479022026062,0.025965800508856773
1783080298199697400,1.502697509765625,0.28189539909362793,0.05392897129058838,0.014780532568693161
1783080298219545600,1.522545654296875,0.3628554344177246,-0.013049479573965073,0.012117373757064342
1783080298239394300,1.542394287109375,0.38096490502357483,0.07363634556531906,0.01904158666729927
1783080298259243000,1.562242919921875,0.35220280289649963,0.2083922028541565,0.01957421936094761
1783080298279092200,1.58209228515625,0.28455856442451477,0.1609879732131958,0.014247900806367397
1783080298298941400,1.60194140625,0.24900537729263306,0.04114580899477005,0.05099949613213539
1783080298318791000,1.621791015625,0.2644517123699188,0.08162582665681839,0.10586057603359222
1783080298338640600,1.641640625,0.26391905546188354,0.09121319651603699,0.11438268423080444
1783080298358490000,1.661489990234375,0.27656906843185425,-0.052464235574007034,0.0834900364279747
1783080298378340000,1.681340087890625,0.29467856884002686,-0.14088112115859985,0.0600542388856411
1783080298398189800,1.70118994140625,0.26764747500419617,0.0762995108962059,0.07496792823076248
1783080298418039600,1.72103955078125,0.21172115206718445,0.3292996287345886,0.0786963477730751
1783080298437889500,1.7408896484375,0.14460954070091248,0.31385329365730286,0.03928159549832344
1783080298457739300,1.7607392578125,0.09028109163045883,0.08215846121311188,-0.018109481781721115
1783080298477589200,1.78058935546875,0.09241162240505219,-0.10146636515855789,-0.08309056609869003
1783080298497439200,1.800439208984375,0.23622220754623413,0.018775271251797676,-0.0703074038028717
1783080298517289200,1.820289306640625,0.336223840713501,0.3079943358898163,0.03129211813211441
1783080298537139500,1.840139404296875,0.3175817131996155,0.3623228073120117,0.1868206113576889
1783080298556989200,1.8599892578125,0.27124276757240295,0.07470161467790604,0.2539322078227997
1783080298576839200,1.879839111328125,0.16165375709533691,-0.3219759464263916,0.13355742394924164
1783080298596689400,1.899689453125,0.105727419257164,-0.32676962018013,-0.11451584100723267
1783080298616539400,1.919539306640625,0.16591481864452362,-0.016245270147919655,-0.2780338227748871
1783080298636389400,1.939389404296875,0.20319904386997223,0.1982721984386444,-0.23329274356365204
1783080298656239400,1.9592392578125,0.1387505829334259,0.15459638833999634,-0.05113265663385391
1783080298676089300,1.97908935546875,0.07057371735572815,0.01504684891551733,0.0930774137377739
1783080298695939300,1.998939208984375,0.0774979293346405,0.0002663159102667123,0.10799109935760498
1783080298715789600,2.01878955078125,0.08388951420783997,0.008655266836285591,0.03608580678701401
1783080298735639600,2.0386396484375,0.028495801612734795,-0.10785794258117676,-0.0708400309085846
1783080298755489500,2.058489501953125,-0.048203181475400925,-0.1898832470178604,-0.1826927214860916
1783080298775339500,2.078339599609375,-0.09400951862335205,-0.18455693125724792,-0.2545980215072632
1783080298795189800,2.098189697265625,-0.10892320424318314,-0.09614004194736481,-0.2263685166835785
1783080298815039700,2.118039794921875,-0.0918789878487587,-0.03169159218668938,-0.11984215676784515
1783080298834889700,2.1378896484375,-0.07004108279943466,-0.07590003311634064,0.0025300011038780212
1783080298854739700,2.15773974609375,-0.04500738903880119,-0.09400951862335205,0.0834900364279747
1783080298874590000,2.17758984375,-0.0354200154542923,-0.10359688848257065,0.10106688737869263
1783080298894440000,2.19743994140625,-0.04660528525710106,-0.18402428925037384,0.07976161688566208
1783080298914290000,2.2172900390625,-0.08602003753185272,-0.24527695775032043,0.05472791939973831
1783080298934140000,2.237139892578125,-0.16112112998962402,-0.22130851447582245,0.03395527973771095
1783080298953990000,2.256989990234375,-0.2186453640460968,-0.10359688848257065,0.01957421936094761
1783080298973840100,2.276840087890625,-0.18455693125724792,0.043808966875076294,0.05579318478703499
1783080298993674800,2.2966748046875,-0.10626004636287689,0.17217323184013367,0.15166690945625305
1783080299013374000,2.3163740234375,-0.0679105594754219,0.10879004746675491,0.21771325170993805
1783080299033226200,2.336226318359375,-0.08921582996845245,-0.3273022472858429,0.15219953656196594
1783080299053093600,2.35609375,-0.19680745899677277,-0.600409209728241,-0.0015978955198079348
1783080299073096200,2.37609619140625,-0.3974764943122864,-0.27190855145454407,-0.17789903283119202
1783080299092945000,2.39594482421875,-0.5961481928825378,0.367649108171463,-0.27004432678222656
1783080299112778800,2.41577880859375,-0.6643250584602356,0.7233139872550964,-0.1741705983877182
1783080299132477200,2.435477294921875,-0.5641902685165405,0.6498108506202698,0.04247738793492317
1783080299152344300,2.45534423828125,-0.37137752771377563,0.3207775056362152,0.2709764242172241
1783080299172331300,2.475331298828125,-0.19307903945446014,-0.0679105594754219,0.3993407189846039
1783080299192029200,2.495029296875,-0.1430116444826126,-0.24953800439834595,0.3705785870552063
1783080299211880400,2.51488037109375,-0.22130851447582245,-0.237820103764534,0.17883113026618958
1783080299231731700,2.534731689453125,-0.28136277198791504,-0.1573926955461502,-0.062317922711372375
1783080299251598000,2.55459814453125,-0.25965800881385803,-0.0727042406797409,-0.25086960196495056
1783080299271580700,2.57458056640625,-0.14620743691921234,-0.029028434306383133,-0.29454538226127625
1783080299291244000,2.594244140625,-0.028495801612734795,0.04966791719198227,-0.12144005298614502
1783080299311133200,2.61413330078125,0.0050600022077560425,0.07044056057929993,0.12397005409002304
1783080299330983700,2.633983642578125,0.00612526573240757,0.005992108024656773,0.2624543309211731
1783080299350849800,2.653849853515625,-0.011451584286987782,-0.05725792050361633,0.22303956747055054
1783080299370851300,2.673851318359375,-0.00985368900001049,-0.03328948840498924,0.061119500547647476
1783080299390684000,2.693683837890625,-0.006657897960394621,-0.0034621069207787514,-0.09001477807760239
1783080299410377500,2.71337744140625,-0.02263685315847397,-0.00985368900001049,-0.16138744354248047
1783080299430194700,2.733194580078125,-0.024234747514128685,0.005992108024656773,-0.13901691138744354
1783080299450099500,2.753099365234375,0.005592633970081806,0.0672447681427002,-0.037816859781742096
1783080299470085400,2.77308544921875,0.048735812306404114,0.11251847445964813,0.10266478359699249
1783080299489782500,2.792782470703125,0.0727042406797409,0.10985531657934189,0.19907113909721375
1783080299509649000,2.81264892578125,0.11211899667978287,0.11038794368505478,0.22144168615341187
1783080299529631500,2.832631591796875,0.17816534638404846,0.10825742036104202,0.19534271955490112
1783080299549310500,2.852310546875,0.24154852330684662,0.031558435410261154,0.15273217856884003
1783080299569335300,2.872335205078125,0.2744385600090027,-0.08335687965154648,0.12183953076601028
1783080299589048000,2.892048095703125,0.30905961990356445,-0.18189376592636108,0.13781848549842834
1783080299609030700,2.91203076171875,0.3058638274669647,-0.0492684431374073,0.21345220506191254
1783080299628710000,2.9317099609375,0.204264298081398,0.12530162930488586,0.22357220947742462
1783080299648750000,2.95175,0.09880319982767105,0.11997532099485397,0.11118689179420471
1783080299668583200,2.971583251953125,0.04660528525710106,0.05233107507228851,-0.061252661049366
1783080299688280800,2.99128076171875,0.0636495053768158,0.01504684891551733,-0.2205095738172531
1783080299708132000,3.011132080078125,0.09880319982767105,0.027297381311655045,-0.287088543176651
1783080299727998700,3.030998779296875,0.11904320865869522,0.15033532679080963,-0.21038956940174103
1783080299747985200,3.050985107421875,0.11691268533468246,0.4065312445163727,-0.004793686326593161
1783080299767682600,3.0706826171875,0.09614004194736481,0.5125249624252319,0.1724395453929901
1783080299787549000,3.090548828125,0.15100112557411194,0.2733732759952545,0.219843789935112
1783080299807535400,3.110535400390625,0.228232741355896,-0.0354200154542923,0.14207953214645386
1783080299827248400,3.130248291015625,0.23568958044052124,-0.17976324260234833,-0.02024000883102417
1783080299847234800,3.15023486328125,0.2234390527009964,-0.19148114323616028,-0.188551664352417
1783080299866947800,3.16994775390625,0.21704746782779694,-0.17923060059547424,-0.2673811614513397
1783080299886934500,3.1899345703125,0.15419691801071167,-0.11851058155298233,-0.2354232668876648
1783080299906647800,3.209647705078125,0.05992107838392258,0.07310371845960617,-0.14327795803546906
1783080299926649900,3.22964990234375,0.028495801612734795,0.2680469751358032,-0.053795814514160156
1783080299946483000,3.24948291015625,0.04287686198949814,0.22596904635429382,-0.029827382415533066
1783080299966180900,3.269180908203125,0.07536740601062775,0.05446160212159157,-0.05219791829586029
1783080299986032000,3.2890322265625,0.07163897901773453,-0.10839057713747025,-0.12570111453533173
1783080300025900800,3.32890087890625,-0.020506324246525764,-0.0727042406797409,-0.3472759425640106
1783080300045734000,3.34873388671875,-0.04181159660220146,-0.040213704109191895,-0.36059173941612244
1783080300065447400,3.368447509765625,-0.012516847811639309,-0.06897582113742828,-0.2402169555425644
1783080300085434000,3.38843408203125,0.014647374860942364,-0.13289164006710052,-0.07616634666919708
1783080300105147400,3.4081474609375,0.0002663159102667123,-0.12650005519390106,0.03448791056871414
1783080300125149700,3.428149658203125,-0.04767054691910744,-0.06471476703882217,0.074435293674469
1783080300144983000,3.447983154296875,-0.0679105594754219,-0.1009337306022644,0.061652131378650665
1783080300164681000,3.467680908203125,-0.030626330524683,-0.23995064198970795,0.03555317223072052
1783080300184532500,3.487532470703125,-0.00612526573240757,-0.3022685647010803,0.024367906153202057
1783080300204399400,3.5073994140625,-0.05566002428531647,-0.1861548274755478,0.05685844644904137
1783080300224401200,3.527401123046875,-0.14460954070091248,0.0294279083609581,0.12237215787172318
1783080300244234200,3.547234130859375,-0.17443692684173584,0.08322372287511826,0.19747324287891388
1783080300263947800,3.56694775390625,-0.14674006402492523,-0.11424952745437622,0.2012016773223877
1783080300283934500,3.5869345703125,-0.14620743691921234,-0.43702441453933716,0.11704584211111069
1783080300303648000,3.60664794921875,-0.2005358785390854,-0.46205809712409973,-0.0031957910396158695
1783080300323650000,3.626650146484375,-0.3106575012207031,-0.10253162682056427,-0.07936213910579681
1783080300343483400,3.6464833984375,-0.4203796684741974,0.2648511826992035,-0.054861076176166534
1783080300363181600,3.666181640625,-0.4342280924320221,0.20732693374156952,0.04407528415322304
1783080300383032800,3.68603271484375,-0.3117227852344513,0.007590003311634064,0.15486270189285278
1783080300402899700,3.705899658203125,-0.16112112998962402,-0.08548741042613983,0.24487747251987457
1783080300422901800,3.72590185546875,-0.13608743250370026,-0.18881797790527344,0.296542763710022
1783080300442734800,3.74573486328125,-0.25007063150405884,-0.1909485012292862,0.27896592020988464
1783080300462432500,3.7654326171875,-0.35167014598846436,-0.06684529036283493,0.17883113026618958
1783080300482283800,3.78528369140625,-0.38096490502357483,0.09334372729063034,0.0366184376180172
1783080300502150700,3.805150634765625,-0.3404848873615265,0.1471395343542099,-0.06391581892967224
1783080300522136800,3.82513671875,-0.2701774835586548,0.15992270410060883,-0.058056868612766266
1783080300541834500,3.84483447265625,-0.22024326026439667,0.16258586943149567,0.028628960251808167
1783080300561685500,3.864685546875,-0.2005358785390854,0.21584904193878174,0.10958899557590485
1783080300581536300,3.884536376953125,-0.18935060501098633,0.246209055185318,0.12716585397720337
1783080300601402400,3.90440234375,-0.16538217663764954,0.13169321417808533,0.06751108169555664
1783080300621388500,3.924388427734375,-0.11797794699668884,0.004926844500005245,-0.04474107176065445
1783080300641085700,3.944085693359375,-0.08868319541215897,-0.03009369783103466,-0.15393058955669403
1783080300660936400,3.9639365234375,-0.06950845569372177,0.0011984215816482902,-0.19494324922561646
1783080300680802800,3.983802734375,-0.05992107838392258,0.019840534776449203,-0.1555284857749939
1783080300700804400,4.003804443359375,-0.044474758207798004,-0.0141147430986166,-0.04474107176065445
1783080300720637000,4.023636962890625,-0.01784316636621952,-0.013582111336290836,0.0456731803715229
1783080300740350200,4.04335009765625,0.002929474925622344,0.06085318699479103,0.0600542388856411
1783080300760336600,4.063336669921875,0.019973693415522575,0.1663142889738083,0.03075948730111122
1783080300780034300,4.083034423828125,0.05512739345431328,0.1982721984386444,0.021172115579247475
1783080300799901200,4.102901123046875,0.10412952303886414,0.09227846562862396,0.033422645181417465
1783080300819903000,4.122903076171875,0.1621863842010498,-0.04980107396841049,0.061119500547647476
1783080300839751400,4.14275146484375,0.2330264151096344,-0.10146636515855789,0.08029424399137497
1783080300859600100,4.16260009765625,0.24314641952514648,-0.05352949723601341,0.08135951310396194
1783080300879449000,4.182448974609375,0.19254639744758606,0.18335850536823273,0.10532794147729874
1783080300899298300,4.20229833984375,0.12543480098247528,0.25686168670654297,0.10373004525899887
1783080300919147800,4.222147705078125,0.09773793816566467,0.07203845679759979,0.016378428786993027
1783080300938997500,4.24199755859375,0.07376950979232788,0.011318426579236984,-0.11558110266923904
1783080300958847000,4.261846923828125,0.07057371735572815,0.010253162123262882,-0.23755379021167755
1783080300978696700,4.28169677734375,0.06950845569372177,-0.024767380207777023,-0.3004043400287628
1783080300998546400,4.30154638671875,0.07217161357402802,0.035286858677864075,-0.2828274965286255
1783080301018396400,4.321396484375,0.18828535079956055,0.19294588267803192,-0.15233269333839417
1783080301038246100,4.34124609375,0.33675646781921387,0.20892482995986938,0.04993423447012901
1783080301058096000,4.36109619140625,0.3996070325374603,0.04167843982577324,0.19267955422401428
1783080301077946000,4.380946044921875,0.4145207107067108,-0.1861548274755478,0.19374482333660126
1783080301097796000,4.400796142578125,0.40866175293922424,-0.30972540378570557,0.0648479238152504
1783080301117646000,4.42064599609375,0.37563860416412354,-0.284691721200943,-0.08681898564100266
1783080301137496000,4.44049609375,0.2925480306148529,-0.09454214572906494,-0.15765902400016785
1783080301157346000,4.460345947265625,0.17017586529254913,0.09281109273433685,-0.1502021700143814
1783080301177196000,4.480196044921875,0.08069372177124023,0.20093534886837006,-0.09747162461280823
1783080301197046300,4.50004638671875,0.07803056389093399,0.19987009465694427,-0.05219791829586029
1783080301216892400,4.519892333984375,0.10998847335577011,0.0576573945581913,-0.06018739566206932
1783080301236708600,4.53970849609375,0.1009337306022644,-0.08655267208814621,-0.1272990107536316
1783080301256596700,4.5595966796875,0.06418213248252869,-0.07696529477834702,-0.23276010155677795
1783080301276446700,4.57944677734375,0.01837579719722271,-0.08921582996845245,-0.3201117217540741
1783080301296296700,4.599296630859375,0.016777902841567993,-0.10998847335577011,-0.3201117217540741
1783080301316146700,4.619146728515625,0.03382211923599243,-0.07536740601062775,-0.24181485176086426
1783080301335996700,4.63899658203125,0.035952646285295486,-0.05139897018671036,-0.1358211189508438
1783080301355846700,4.6588466796875,0.040213704109191895,-0.06897582113742828,-0.04101264849305153
1783080301375697000,4.67869677734375,0.04340949282050133,-0.10732531547546387,0.01318263728171587
1783080301395547000,4.698546875,0.008255792781710625,-0.2138516753911972,-0.0074568456038832664
1783080301415396900,4.71839697265625,-0.04234423115849495,-0.28682222962379456,-0.07723161578178406
1783080301435246800,4.738246826171875,-0.07110634446144104,-0.31025803089141846,-0.13369058072566986
1783080301455096800,4.758096923828125,-0.10519478470087051,-0.2372874766588211,-0.12570111453533173
1783080301474947000,4.777947021484375,-0.15899059176445007,-0.11158636957406998,-0.06764423847198486
1783080301494797000,4.797797119140625,-0.17283903062343597,0.13861742615699768,0.021172115579247475
1783080301514647000,4.81764697265625,-0.16112112998962402,0.16897743940353394,0.09254477918148041
1783080301534497000,4.8374970703125,-0.1621863842010498,-0.21491694450378418,0.08934898674488068
1783080301554347300,4.85734716796875,-0.204264298081398,-0.5169191956520081,0.001464737462811172
1783080301574197200,4.877197265625,-0.3404848873615265,-0.3885549008846283,-0.11877689510583878
1783080301594047200,4.897047119140625,-0.4523375630378723,0.02197106182575226,-0.20399798452854156
1783080301613897500,4.9168974609375,-0.38469332456588745,0.2589922249317169,-0.15339796245098114
1783080301633739800,4.93673974609375,-0.24101589620113373,0.23342590034008026,0.03874896466732025
1783080301653522000,4.95652197265625,-0.16058848798274994,0.059787921607494354,0.2438122183084488
1783080301673448700,4.97644873046875,-0.09773793816566467,-0.04554001986980438,0.3700459599494934
1783080301693283000,4.996282958984375,-0.08761793375015259,-0.07483477145433426,0.3705785870552063
1783080301712982300,5.015982177734375,-0.1669800728559494,-0.09028109163045883,0.2475406378507614
1783080301732834300,5.035834228515625,-0.25912538170814514,-0.020506324246525764,0.06591318547725677
1783080301752701700,5.05570166015625,-0.2834932804107666,0.11677952855825424,-0.07190529257059097
1783080301772688600,5.075688720703125,-0.21598219871520996,0.26751431822776794,-0.10279794037342072
1783080301792386600,5.095386474609375,-0.12383689731359482,0.24887222051620483,-0.038882121443748474
1783080301812234000,5.11523388671875,-0.06471476703882217,0.20146799087524414,0.04780370742082596
1783080301832067000,5.135067138671875,-0.0870852991938591,0.14341111481189728,0.07230477035045624
1783080301852107000,5.15510693359375,-0.1009337306022644,0.047004759311676025,-0.0010652636410668492
1783080301871955200,5.174955078125,-0.06631266325712204,-0.003994738683104515,-0.10492847114801407
1783080301891804000,5.194803955078125,-0.05086633935570717,0.07044056057929993,-0.16618113219738007
1783080301911637500,5.214637451171875,-0.07376950979232788,0.11198583990335464,-0.16618113219738007
1783080301931335700,5.234335693359375,-0.08548741042613983,0.09760478138923645,-0.12623374164104462
1783080301951202800,5.254202880859375,-0.04500738903880119,0.08908267319202423,-0.11504847556352615
1783080301971186000,5.27418603515625,-0.001331579522229731,0.1327584832906723,-0.14487585425376892
1783080301990850000,5.29385009765625,-0.013049479573965073,0.20572903752326965,-0.18695376813411713
1783080302010739500,5.313739501953125,-0.07483477145433426,0.24194800853729248,-0.20026956498622894
1783080302030605800,5.333605712890625,-0.044474758207798004,0.2222406268119812,-0.1699095517396927
1783080302050607600,5.353607666015625,0.14194637537002563,0.09920267760753632,-0.08362319320440292
1783080302070436600,5.3734365234375,0.33356067538261414,-0.05459476262331009,0.032890014350414276
1783080302090096600,5.3930966796875,0.3958786129951477,-0.21704746782779694,0.12503531575202942
1783080302109948700,5.41294873046875,0.37137752771377563,-0.08921582996845245,0.1964079886674881
1783080302129800000,5.432800048828125,0.3016027808189392,0.29467856884002686,0.24700801074504852
1783080302149670700,5.452670654296875,0.26338642835617065,0.39374807476997375,0.24913853406906128
1783080302169710000,5.4727099609375,0.2728406488895416,0.12583427131175995,0.1628521829843521
1783080302189538800,5.492538818359375,0.2516685426235199,-0.11744531989097595,-0.03941475600004196
1783080302209202400,5.512202392578125,0.2191779911518097,-0.26391905546188354,-0.2956106662750244
1783080302229091600,5.532091552734375,0.20746009051799774,-0.16058848798274994,-0.456465482711792
1783080302248957700,5.551957763671875,0.17070849239826202,0.07683213800191879,-0.4090612530708313
1783080302268944000,5.57194384765625,0.18189376592636108,0.3729754388332367,-0.16671375930309296
1783080302288656600,5.59165673828125,0.2516685426235199,0.44168493151664734,0.12982900440692902
1783080302308658400,5.611658447265625,0.2829606533050537,0.22809958457946777,0.3082606792449951
1783080302328506600,5.631506591796875,0.2697780132293701,-0.04340949282050133,0.27949854731559753
1783080302348351500,5.6513515625,0.2644517123699188,-0.27297380566596985,0.06804371625185013
1783080302368147200,5.671147216796875,0.22929799556732178,-0.2948117256164551,-0.15765902400016785
1783080302387846100,5.69084619140625,0.12330426275730133,-0.25007063150405884,-0.26951169967651367
1783080302407698200,5.7106982421875,0.027430538088083267,-0.19893798232078552,-0.2311622053384781
1783080302427569400,5.7305693359375,-0.03914843872189522,-0.0774979293346405,-0.11132004857063293
1783080302447609600,5.750609619140625,-0.036485280841588974,0.09440898895263672,-0.0015978955198079348
1783080302467438600,5.7704384765625,0.031158961355686188,0.17803218960762024,0.045140545815229416
1783080302487098400,5.790098388671875,0.05299686640501022,0.06777740269899368,0.00892158318310976
1783080302506969600,5.809969482421875,0.02636527456343174,-0.03382211923599243,-0.07190529257059097
1783080302527009500,5.830009521484375,-0.010918952524662018,-0.08495477586984634,-0.16405059397220612
1783080302546842600,5.849842529296875,-0.007723161485046148,-0.09827057272195816,-0.21731378138065338
1783080302566540300,5.869540283203125,-0.006657897960394621,-0.0870852991938591,-0.2018674612045288
1783080302586407000,5.889406982421875,-0.008255792781710625,-0.09720530360937119,-0.12357058376073837
1783080302606408700,5.90940869140625,-0.03861580789089203,-0.0727042406797409,-0.0330231711268425
1783080302626257200,5.929257080078125,-0.07110634446144104,-0.07057371735572815,0.014247900806367397
1783080302646090800,5.9490908203125,-0.08335687965154648,-0.110521100461483,0.024367906153202057
1783080302665788700,5.96878857421875,-0.09294424951076508,-0.2426137924194336,0.03448791056871414
1783080302685640200,5.98864013671875,-0.13022847473621368,-0.3273022472858429,0.03608580678701401
1783080302705507000,6.008507080078125,-0.21065588295459747,-0.2751043438911438,0.007323687430471182
1783080302725509000,6.028509033203125,-0.29521119594573975,-0.0966726765036583,-0.021305272355675697
1783080302745342200,6.04834228515625,-0.30852699279785156,0.10293109714984894,-0.00798947736620903
1783080302765039900,6.068039794921875,-0.26391905546188354,0.1748363971710205,0.05419528856873512
1783080302784891400,6.087891357421875,-0.23036326467990875,-0.0822916179895401,0.10586057603359222
1783080302804758000,6.107758056640625,-0.26285380125045776,-0.4865591824054718,0.07496792823076248
1783080302824759800,6.127759765625,-0.3548659384250641,-0.4881570637226105,0.012650005519390106
1783080302844593000,6.147593017578125,-0.46512073278427124,-0.0492684431374073,-0.03142527863383293
1783080302864310300,6.167310302734375,-0.5167860388755798,0.37883439660072327,0.008388951420783997
1783080302884331000,6.1873310546875,-0.47896915674209595,0.4161186218261719,0.15166690945625305
1783080302904006000,6.207005859375,-0.3394196331501007,0.12104058265686035,0.30666276812553406
1783080302924008200,6.22700830078125,-0.2234390527009964,-0.16484954953193665,0.35886070132255554
1783080302943838000,6.246837890625,-0.2516685426235199,-0.27350643277168274,0.25979116559028625
1783080302963518000,6.26651806640625,-0.392682820558548,-0.13555480539798737,0.06964161247015
1783080302983543000,6.28654296875,-0.47790390253067017,0.07310371845960617,-0.0990695208311081
1783080303003256600,6.306256591796875,-0.5775060653686523,0.15033532679080963,-0.26098960638046265
1783080303023243500,6.326243408203125,-0.6360955238342285,0.13915006816387177,-0.4479433596134186
1783080303042941200,6.345941162109375,-0.4289017617702484,0.12050794810056686,-0.5799028873443604
1783080303062792400,6.36579248046875,-0.18242639303207397,0.08269108831882477,-0.5399554967880249
1783080303082643500,6.3856435546875,-0.11691268533468246,0.2792322337627411,-0.27057695388793945
1783080303102510000,6.405510009765625,-0.14514216780662537,0.3442133069038391,0.04034686088562012
1783080303122496300,6.425496337890625,-0.10945583879947662,0.18176060914993286,0.24061642587184906
1783080303142193400,6.445193359375,-0.015180006623268127,0.019307903945446014,0.26511749625205994
1783080303162044400,6.46504443359375,0.05033370852470398,-0.02636527456343174,0.1639174371957779
1783080303181895200,6.484895263671875,0.06897582113742828,0.1418132185935974,0.04673844203352928
1783080303201761300,6.50476123046875,0.10466215014457703,0.15885743498802185,-0.046338967978954315
1783080303221762800,6.5247626953125,0.15899059176445007,-0.008255792781710625,-0.03621896356344223
1783080303241595600,6.544595703125,0.11584742367267609,-0.03169159218668938,0.03981423005461693
1783080303261293000,6.56429296875,0.07217161357402802,0.0624510794878006,0.10266478359699249
1783080303281140200,6.58414013671875,0.14034847915172577,0.07097318768501282,0.1255679577589035
1783080303320997600,6.62399755859375,0.2191779911518097,-0.040213704109191895,0.1825595498085022
1783080303340694500,6.643694580078125,0.24847275018692017,-0.09241162240505219,0.20493009686470032
1783080303360561200,6.66356103515625,0.1952095627784729,0.30053749680519104,0.3008038103580475
1783080303380562700,6.683562744140625,0.13235901296138763,0.6599308252334595,0.3428817391395569
1783080303400411000,6.703410888671875,0.036485280841588974,0.367649108171463,0.196940615773201
