time,seconds_elapsed,z,y,x
1783080139520531200,0.08253125,-0.1672201156616211,0.016855135560035706,-0.016439467668533325
1783080139540390400,0.102390380859375,-0.17779159545898438,0.015069738030433655,0.01587142050266266
1783080139579864600,0.141864501953125,0.060439109802246094,-0.01140032708644867,-0.0009775757789611816
1783080139599714300,0.16171435546875,0.15091896057128906,-0.09224749356508255,0.012906178832054138
1783080139619563800,0.181563720703125,0.06728363037109375,-0.02177049219608307,-0.026509851217269897
1783080139639567600,0.201567626953125,0.04206562042236328,-0.03492021560668945,-0.014000102877616882
1783080139659417300,0.221417236328125,-0.09806632995605469,-0.012339383363723755,-0.03128397464752197
1783080139679113000,0.241113037109375,-0.05297660827636719,-0.030757814645767212,-0.03598341345787048
1783080139698962700,0.260962646484375,-0.09976577758789062,-0.03009769320487976,-0.06284524500370026
1783080139718812200,0.280812255859375,-0.0663909912109375,-0.005824938416481018,-0.04645565152168274
1783080139738815700,0.300815673828125,-0.03188323974609375,0.005885779857635498,-0.03425140678882599
1783080139778515200,0.34051513671875,0.1403188705444336,-0.0556739866733551,-0.05029529333114624
1783080139798211000,0.360211181640625,0.07097816467285156,-0.05181676149368286,0.0025031715631484985
1783080139818060500,0.380060546875,-0.028365135192871094,-0.03826002776622772,0.05859532952308655
1783080139838064000,0.400064208984375,-0.08286571502685547,0.032719820737838745,0.06437301635742188
1783080139857759700,0.419759765625,-0.05471611022949219,-0.0300702303647995,0.06866098195314407
1783080139877763300,0.439763427734375,-0.02281951904296875,-0.02562841773033142,0.06897836923599243
1783080139897459000,0.459458984375,-0.035803794860839844,0.023830220103263855,0.06930816918611526
1783080139917462500,0.479462646484375,-0.12242889404296875,0.03510172665119171,0.08099226653575897
1783080139937312300,0.499312255859375,-0.09981155395507812,0.022146835923194885,0.039719805121421814
1783080139957008100,0.519008056640625,0.012093544006347656,0.015213742852210999,-0.02657763659954071
1783080139976857600,0.538857666015625,0.10170745849609375,-0.0035900473594665527,0.003314688801765442
1783080139996707000,0.55870703125,0.206939697265625,0.0035707801580429077,0.03418786823749542
1783080140016710700,0.578710693359375,0.12136173248291016,0.009812727570533752,0.035364896059036255
1783080140036560400,0.598560302734375,0.06889629364013672,0.01981547474861145,0.03814765810966492
1783080140056410000,0.61841015625,-0.018866539001464844,0.04909108579158783,-0.03122076392173767
1783080140076259800,0.638259765625,-0.020455360412597656,0.003835707902908325,-0.02773025631904602
1783080140095955500,0.65795556640625,-0.038238525390625,0.007290482521057129,-0.011786699295043945
1783080140115959000,0.677958984375,-0.04152965545654297,-0.0277642160654068,-0.0038391053676605225
1783080140135808800,0.697808837890625,-0.0817403793334961,0.03308098018169403,-0.017163366079330444
1783080140155504400,0.71750439453125,-0.04665660858154297,0.023301929235458374,-0.037324294447898865
1783080140175353900,0.737353759765625,-0.033695220947265625,-0.03174741566181183,-0.009338155388832092
1783080140195357400,0.757357421875,0.05760002136230469,-0.053790584206581116,-0.02291238307952881
1783080140215207200,0.777207275390625,0.099761962890625,-0.030674651265144348,-0.020380347967147827
1783080140235057000,0.797056884765625,-0.03296947479248047,-0.009210854768753052,-0.019716665148735046
1783080140254752500,0.81675244140625,-0.1266021728515625,0.01081135869026184,-0.06442371010780334
1783080140274602000,0.83660205078125,-0.12009429931640625,0.027446851134300232,-0.01954270899295807
1783080140294451500,0.856451416015625,-0.06536388397216797,0.029202625155448914,0.023108258843421936
1783080140314455000,0.876455078125,0.02692699432373047,0.02240900695323944,0.023496612906455994
1783080140334304800,0.8963046875,0.014415740966796875,0.023699626326560974,0.002102971076965332
1783080140354000600,0.916000732421875,-0.004590034484863281,0.026492580771446228,-0.05787214636802673
1783080140373850000,0.93585009765625,-0.004481315612792969,0.04152335226535797,-0.03591358661651611
1783080140393699600,0.955699462890625,0.0025033950805664062,0.014686882495880127,0.0012080967426300049
1783080140413703200,0.975703125,0.04170989990234375,0.016548335552215576,-0.008280321955680847
1783080140433553000,0.995552978515625,0.054168701171875,0.012717664241790771,-0.05696782469749451
1783080140453248500,1.01524853515625,-0.0078067779541015625,-0.008402973413467407,-0.026872903108596802
1783080140473098200,1.03509814453125,-0.009901046752929688,-0.006878986954689026,-0.04526461660861969
1783080140492947700,1.05494775390625,-0.05359363555908203,-0.018007397651672363,-0.06891067326068878
1783080140512951300,1.074951416015625,0.056919097900390625,-0.0020147711038589478,-0.07229211926460266
1783080140532647000,1.09464697265625,-0.021352767944335938,-0.01082448661327362,-0.02606022357940674
1783080140552496400,1.114496337890625,-0.01358795166015625,0.01749652624130249,0.007962822914123535
1783080140572346000,1.13434619140625,-0.0732879638671875,0.04732564091682434,0.02481144666671753
1783080140592195600,1.154195556640625,-0.06404781341552734,0.032679080963134766,0.020175591111183167
1783080140612199200,1.17419921875,0.1275920867919922,0.01021181046962738,-0.036182552576065063
1783080140631894800,1.193894775390625,0.18802165985107422,0.014001131057739258,0.04846891760826111
1783080140651744500,1.21374462890625,0.1240692138671875,0.02016526460647583,0.1154308021068573
1783080140671594000,1.233593994140625,0.0045261383056640625,0.03596644103527069,0.07169817388057709
1783080140691443700,1.253443603515625,-0.030138015747070312,0.028332769870758057,-0.005936145782470703
1783080140711447300,1.273447265625,-0.026763916015625,-0.013411834836006165,-0.06230846047401428
1783080140731143200,1.29314306640625,-0.039646148681640625,-0.03257271647453308,-0.050430700182914734
1783080140751146800,1.313146728515625,-0.028936386108398438,0.016404852271080017,-0.07539567351341248
1783080140770842400,1.33284228515625,0.020603179931640625,0.0023280829191207886,-0.09565615653991699
1783080140790691800,1.35269189453125,-0.012601852416992188,-0.0517892986536026,-0.10415825247764587
1783080140810695700,1.37269580078125,0.08269405364990234,-0.04076169431209564,-0.07050208747386932
1783080140830545400,1.39254541015625,0.0569000244140625,-0.01987956464290619,-0.03157965838909149
1783080140850395100,1.41239501953125,-0.005000114440917969,-0.001684725284576416,0.010802224278450012
1783080140870090800,1.4320908203125,-0.09966850280761719,-0.0042685866355896,-0.016302376985549927
1783080140889940200,1.451940185546875,-0.12645244598388672,0.034511566162109375,0.042443081736564636
1783080140909943800,1.47194384765625,-0.027448654174804688,0.03952266275882721,0.07769455015659332
1783080140929793500,1.49179345703125,0.021892547607421875,0.0068988800048828125,0.07538580894470215
1783080140949643300,1.511643310546875,0.09742164611816406,-0.03747721016407013,-0.008705168962478638
1783080140969493000,1.531492919921875,0.12198162078857422,-0.03415277600288391,-0.015937045216560364
1783080140989342700,1.5513427734375,0.0741119384765625,-0.026645496487617493,0.0266304612159729
1783080141009192200,1.571192138671875,0.000110626220703125,0.008630931377410889,0.046508267521858215
1783080141029042000,1.5910419921875,-0.06686210632324219,-0.0199224054813385,0.0507822185754776
1783080141048891600,1.6108916015625,-0.09927845001220703,-0.029808849096298218,0.028055742383003235
1783080141068741400,1.630741455078125,-0.040452003479003906,-0.01987101137638092,0.012091964483261108
1783080141088590800,1.6505908203125,-0.025325775146484375,-0.03218679130077362,0.030899062752723694
1783080141108440600,1.670440673828125,-0.006000518798828125,-0.03181551396846771,0.011641174554824829
1783080141128290000,1.6902900390625,0.015080451965332031,-0.015969902276992798,-0.008605286478996277
1783080141148139800,1.710139892578125,-0.06624794006347656,-0.025508537888526917,0.02433764934539795
1783080141167989500,1.729989501953125,-0.09638690948486328,0.022275403141975403,0.009471669793128967
1783080141187839000,1.7498388671875,-0.09330368041992188,0.0035636574029922485,0.01967698335647583
1783080141207689500,1.769689453125,0.06456470489501953,-0.017870664596557617,-0.010920718312263489
1783080141227538400,1.789538330078125,0.19406986236572266,-0.05323547124862671,-0.042091965675354004
1783080141247388000,1.809387939453125,0.21070098876953125,-0.02355639636516571,0.01927432417869568
1783080141267199000,1.829198974609375,0.04420661926269531,-0.012125417590141296,0.08516194671392441
1783080141287087000,1.849087158203125,-0.08425521850585938,0.011148959398269653,0.05580595135688782
1783080141306936800,1.868936767578125,-0.11378669738769531,-0.009055599570274353,-0.0588390976190567
1783080141326786600,1.88878662109375,-0.1123514175415039,-0.033408164978027344,-0.08949936926364899
1783080141346636000,1.908635986328125,-0.016083717346191406,-0.005096077919006348,-0.07455943524837494
1783080141366485800,1.92848583984375,-0.029496192932128906,0.020371437072753906,0.009635046124458313
1783080141386335200,1.948335205078125,-0.04705333709716797,0.04473590850830078,0.0060577392578125
1783080141406185000,1.96818505859375,-0.017755508422851562,0.03146648406982422,0.007442757487297058
1783080141426034400,1.988034423828125,0.047534942626953125,0.031589195132255554,-0.019434109330177307
1783080141445884200,2.00788427734375,0.09679126739501953,0.021618947386741638,-0.0032974928617477417
1783080141465734000,2.02773388671875,0.07971763610839844,0.020632684230804443,0.011479899287223816
1783080141485583600,2.04758349609375,0.037853240966796875,0.031073004007339478,0.049740225076675415
1783080141505433000,2.06743310546875,-0.05111408233642578,0.03376507759094238,0.027425117790699005
1783080141525282800,2.08728271484375,-0.05847930908203125,0.048944443464279175,-0.05935205519199371
1783080141545132300,2.10713232421875,-0.012536048889160156,0.009746193885803223,-0.06852123141288757
1783080141564982000,2.12698193359375,0.0017480850219726562,-0.023641377687454224,-0.04783757030963898
1783080141584831700,2.146831787109375,0.013339996337890625,-0.018998682498931885,-0.023446768522262573
1783080141604681200,2.16668115234375,0.015364646911621094,-0.011892110109329224,0.033736616373062134
1783080141624531000,2.186531005859375,-0.04059600830078125,-0.02460905909538269,0.03655260056257248
1783080141644380400,2.20638037109375,-0.04382133483886719,-0.054393112659454346,0.03528442233800888
1783080141664230100,2.226230224609375,-0.0029125213623046875,-0.07343944907188416,0.019636139273643494
1783080141684079600,2.24607958984375,-0.011966705322265625,-0.07252714037895203,-0.007356747984886169
1783080141703929300,2.265929443359375,-0.09015655517578125,-0.07980602979660034,0.026608392596244812
1783080141723779000,2.285779052734375,-0.17264270782470703,-0.0636216402053833,0.03886836767196655
1783080141743628500,2.305628662109375,-0.18299484252929688,-0.008858025074005127,0.03730197250843048
1783080141763478300,2.325478271484375,-0.12375736236572266,0.017434358596801758,0.030620917677879333
1783080141783327700,2.34532763671875,-0.018148422241210938,-0.0027122199535369873,-0.02635960280895233
1783080141803023600,2.365023681640625,0.08613872528076172,-0.03181882202625275,-0.03638175129890442
1783080141822872800,2.384872802734375,0.21023273468017578,0.029094189405441284,0.05671055614948273
1783080141842722300,2.404722412109375,0.16845321655273438,0.08227334916591644,0.18351949751377106
1783080141862726000,2.424725830078125,0.09592342376708984,0.09485301375389099,0.21658121049404144
1783080141882575600,2.44457568359375,-0.03666496276855469,0.10405486822128296,0.07271652668714523
1783080141902271200,2.464271240234375,-0.05855369567871094,0.0675714910030365,0.011654004454612732
1783080141922120700,2.48412060546875,-0.02432537078857422,0.03937840461730957,0.010199293494224548
1783080141941970200,2.50397021484375,0.018019676208496094,0.009308785200119019,0.019058801233768463
1783080141961973800,2.523973876953125,0.08682823181152344,0.009083688259124756,-0.020492881536483765
1783080141981669400,2.54366943359375,0.09320735931396484,-0.02471977472305298,-0.0831412822008133
1783080142001518800,2.563518798828125,0.029964447021484375,-0.047368764877319336,-0.10330601036548615
1783080142021368600,2.58336865234375,-0.0010042190551757812,-0.08117814362049103,-0.07639196515083313
1783080142041218000,2.603218017578125,-0.021650314331054688,-0.028149396181106567,-0.05746142566204071
1783080142061221600,2.6232216796875,-0.0647726058959961,-0.03738969564437866,-0.05282557010650635
1783080142080879000,2.642879150390625,-0.1273021697998047,-0.004814743995666504,-0.031086191534996033
1783080142100921000,2.662921142578125,-0.16004467010498047,0.01576438546180725,0.020550474524497986
1783080142120616700,2.68261669921875,-0.12937068939208984,0.04066994786262512,0.03627896308898926
1783080142140427800,2.702427734375,-0.014230728149414062,0.008526414632797241,0.021049633622169495
1783080142160469800,2.7224697265625,0.11329174041748047,-0.010861828923225403,-0.015915527939796448
1783080142180127000,2.742126953125,0.1742391586303711,0.0008427202701568604,-0.025247812271118164
1783080142199976400,2.7619765625,0.10139846801757812,0.02268168330192566,0.01807054877281189
1783080142219826000,2.781825927734375,-0.0151824951171875,0.024199947714805603,0.03652927279472351
1783080142239714000,2.801714111328125,-0.023830413818359375,0.03453053534030914,-0.036759987473487854
1783080142259718000,2.8217177734375,0.009333610534667969,0.022954538464546204,-0.007835790514945984
1783080142279413500,2.84141357421875,0.022857666015625,0.004169106483459473,0.023515433073043823
1783080142299417000,2.8614169921875,-0.017203330993652344,0.000048279762268066406,0.04240751266479492
1783080142319112700,2.88111279296875,-0.08823966979980469,0.005741626024246216,0.028202056884765625
1783080142339116500,2.901116455078125,-0.06674480438232422,-0.0024458616971969604,-0.011415570974349976
1783080142358966300,2.92096630859375,-0.07156085968017578,-0.007649868726730347,-0.023354530334472656
1783080142378662000,2.940661865234375,0.04401111602783203,-0.045818641781806946,-0.04790565371513367
1783080142398473000,2.960472900390625,0.12792491912841797,-0.04781979322433472,-0.058952704071998596
1783080142418360800,2.98036083984375,0.1559305191040039,-0.05420003831386566,-0.001192048192024231
1783080142438364400,3.000364501953125,0.13925743103027344,-0.02667461335659027,-0.007633626461029053
1783080142458098700,3.0200986328125,0.007554054260253906,0.024868592619895935,0.030294448137283325
1783080142477871400,3.039871337890625,-0.11053657531738281,0.04512307047843933,0.06973059475421906
1783080142497720800,3.059720947265625,-0.07906341552734375,0.05222658812999725,0.058101773262023926
1783080142517762800,3.0797626953125,-0.039536476135253906,0.019310787320137024,0.0009062439203262329
1783080142537612800,3.09961279296875,0.05427360534667969,-0.00241793692111969,-0.009436801075935364
1783080142557308400,3.119308349609375,0.029329299926757812,-0.00047366321086883545,-0.011592879891395569
1783080142577312000,3.13931201171875,0.028435707092285156,-0.01599520444869995,-0.007293999195098877
1783080142597007600,3.159007568359375,-0.028034210205078125,-0.018053829669952393,-0.020897209644317627
1783080142617011200,3.17901123046875,0.04462242126464844,-0.07177571952342987,-0.0453263521194458
1783080142636928500,3.198928466796875,0.02695751190185547,-0.07685844600200653,-0.09334622323513031
1783080142656806400,3.218806396484375,-0.03857994079589844,-0.06201644241809845,-0.06268003582954407
1783080142676446500,3.238446533203125,-0.1643686294555664,-0.02024202048778534,-0.03622239828109741
1783080142696472300,3.258472412109375,-0.17272186279296875,-0.010588407516479492,-0.09748044610023499
1783080142716349700,3.278349609375,-0.1415882110595703,-0.047296494245529175,-0.09981778264045715
1783080142755765800,3.317765869140625,0.04442882537841797,-0.01878809928894043,-0.021132588386535645
1783080142775807700,3.337807861328125,0.10514545440673828,0.009251296520233154,0.04862542450428009
1783080142795465200,3.35746533203125,0.1593770980834961,0.03491067886352539,0.07624127715826035
1783080142815314700,3.377314697265625,0.14715576171875,0.05420902371406555,0.05428628623485565
1783080142835357000,3.39735693359375,0.0798044204711914,0.06806151568889618,0.04247003793716431
1783080142855206700,3.41720654296875,-0.03845500946044922,0.05227780342102051,0.08194443583488464
1783080142874863900,3.43686376953125,-0.060194969177246094,0.09309267997741699,0.06542590260505676
1783080142894709200,3.456709228515625,-0.0697622299194336,0.08276492357254028,0.0537860244512558
1783080142914760200,3.47676025390625,-0.05359077453613281,0.046065762639045715,0.04176826775074005
1783080142934609000,3.49660888671875,-0.01019287109375,0.023514971137046814,0.007873669266700745
1783080142974383000,3.536383056640625,0.038661956787109375,0.044257134199142456,-0.009574249386787415
1783080142994154800,3.55615478515625,0.021010398864746094,0.023263096809387207,-0.0021781623363494873
1783080143014004200,3.576004150390625,0.09190845489501953,0.0027627944946289062,-0.019723907113075256
1783080143033900000,3.595900146484375,0.16979217529296875,-0.014469742774963379,-0.02295316755771637
1783080143073623300,3.635623291015625,0.07124996185302734,-0.007753238081932068,0.07375594973564148
1783080143093469700,3.6554697265625,-0.005062103271484375,-0.004939094185829163,0.08370231091976166
1783080143113111600,3.675111572265625,-0.06954383850097656,-0.014415755867958069,0.07391133904457092
1783080143132903000,3.69490283203125,-0.09719181060791016,-0.009301990270614624,0.031597793102264404
1783080143152773000,3.714773193359375,-0.09616565704345703,-0.028711214661598206,-0.020753756165504456
1783080143172793000,3.73479296875,-0.06983757019042969,0.0033257752656936646,-0.05780956149101257
1783080143192455700,3.75445556640625,-0.06994819641113281,-0.012995123863220215,0.010818004608154297
1783080143212359700,3.774359619140625,-0.03528404235839844,-0.037498995661735535,0.021770790219306946
1783080143232360400,3.7943603515625,0.012218475341796875,-0.03410175442695618,-0.05233423411846161
1783080143252208000,3.8142080078125,-0.05524253845214844,-0.013848796486854553,-0.0861109048128128
1783080143272056000,3.83405615234375,-0.18524169921875,0.03208447992801666,-0.0434081107378006
1783080143291889000,3.853888916015625,-0.16057491302490234,0.02839277684688568,-0.0661059021949768
1783080143311582700,3.873582763671875,-0.06749820709228516,0.02019175887107849,-0.1090783029794693
1783080143331415600,3.89341552734375,0.07096481323242188,0.014672517776489258,-0.06877569854259491
1783080143351455500,3.91345556640625,0.1539783477783203,-0.003262251615524292,-0.027479663491249084
1783080143371284200,3.9332841796875,0.1626873016357422,0.02816815674304962,0.018635064363479614
1783080143390944000,3.952944091796875,0.10180091857910156,0.017753958702087402,0.022059276700019836
1783080143410815000,3.97281494140625,0.04764747619628906,0.008179813623428345,-0.02128283679485321
1783080143450695200,4.012695068359375,-0.014548301696777344,0.0072718411684036255,-0.027808964252471924
1783080143470352600,4.0323525390625,0.01607990264892578,0.029679730534553528,-0.022197306156158447
1783080143490394400,4.052394287109375,-0.03989887237548828,0.020313650369644165,-0.024684995412826538
1783080143510244000,4.072244140625,-0.10089397430419922,0.04367104172706604,-0.0059037357568740845
1783080143529939700,4.091939697265625,-0.18077754974365234,0.05188266932964325,0.016482248902320862
1783080143549789400,4.11178955078125,-0.09393596649169922,0.03233063220977783,0.003343924880027771
1783080143569639000,4.131638916015625,0.09860801696777344,0.006977051496505737,-0.06176593899726868
1783080143589488400,4.15148828125,0.238555908203125,-0.06372983753681183,-0.010931223630905151
1783080143609492000,4.171491943359375,0.24222278594970703,-0.0701921284198761,0.03426766395568848
1783080143629341700,4.191341796875,0.19738101959228516,-0.030869245529174805,-0.013852044939994812
1783080143649037600,4.21103759765625,0.01982402801513672,-0.009101718664169312,-0.034551844000816345
1783080143669041200,4.231041259765625,-0.07080268859863281,0.008868873119354248,0.029804334044456482
1783080143688890600,4.250890625,-0.13766860961914062,0.03520263731479645,0.09432774782180786
1783080143708740400,4.270740234375,-0.13992881774902344,0.03235611319541931,0.10778214037418365
1783080143728436200,4.290436279296875,-0.05428123474121094,0.013934016227722168,0.03802137076854706
1783080143748285700,4.31028564453125,0.02615833282470703,-0.024267300963401794,-0.04014389216899872
1783080143768135200,4.33013525390625,0.04842376708984375,-0.053494736552238464,-0.0622318834066391
1783080143787984600,4.349984619140625,0.01910400390625,-0.039120182394981384,-0.012490540742874146
1783080143807988200,4.36998828125,0.023162841796875,-0.0481637567281723,0.03813779354095459
1783080143827645400,4.3896455078125,0.03395843505859375,-0.08170150220394135,0.0013966858386993408
1783080143847533300,4.409533203125,0.03055572509765625,-0.06699447333812714,-0.014476984739303589
1783080143867383000,4.429383056640625,0.004261970520019531,-0.01099918782711029,0.04805958271026611
1783080143887386600,4.44938671875,-0.11600589752197266,0.010836109519004822,0.09108966588973999
1783080143907236400,4.469236328125,-0.1837320327758789,0.03159230947494507,0.08045587688684464
1783080143927120000,4.489119873046875,-0.12911510467529297,0.0021525025367736816,0.016560852527618408
1783080143966631000,4.528630859375,0.07771015167236328,-0.011838018894195557,-0.006182283163070679
1783080143986689500,4.548689453125,0.1466693878173828,-0.010835438966751099,0.01324346661567688
1783080144006570500,4.568570556640625,0.16710567474365234,-0.025491774082183838,-0.016127824783325195
1783080144026334200,4.588334228515625,0.11987876892089844,-0.03404736518859863,-0.03247840702533722
1783080144046184000,4.608183837890625,0.0629129409790039,-0.0052461177110672,0.041083529591560364
1783080144066033700,4.62803369140625,-0.04767131805419922,0.04819279909133911,-0.0007581859827041626
1783080144085936000,4.64793603515625,-0.15243244171142578,0.06977412104606628,0.00048689544200897217
1783080144105733000,4.667733154296875,-0.14511489868164062,0.02713868021965027,0.006318286061286926
1783080144125582600,4.68758251953125,-0.15195274353027344,0.04133865237236023,0.07257935404777527
1783080144145432300,4.707432373046875,-0.10059738159179688,0.042855918407440186,0.028244435787200928
1783080144165281800,4.72728173828125,-0.050963401794433594,0.04008558392524719,-0.06660477817058563
1783080144185131500,4.747131591796875,0.04307365417480469,-0.005680829286575317,-0.16673575341701508
1783080144204981200,4.766981201171875,0.07372093200683594,-0.05074194073677063,-0.13327360153198242
1783080144224830700,4.786830810546875,0.16139602661132812,-0.02940945327281952,-0.06347498297691345
1783080144244680400,4.806680419921875,0.14682388305664062,0.013266444206237793,0.03419019281864166
1783080144264530200,4.8265302734375,0.014842987060546875,0.03154337406158447,0.0715194046497345
1783080144284379600,4.846379638671875,-0.05492401123046875,0.02259814739227295,0.04830710589885712
1783080144304229400,4.8662294921875,-0.09003734588623047,-0.0032854676246643066,0.03478170931339264
1783080144324078800,4.886078857421875,0.007845878601074219,0.004190027713775635,0.030362486839294434
1783080144343928600,4.905928466796875,-0.020200729370117188,-0.009377092123031616,0.05583133548498154
1783080144363778300,4.9257783203125,-0.012454986572265625,-0.031798601150512695,0.005242466926574707
1783080144383627800,4.945627685546875,-0.07900047302246094,-0.021880656480789185,-0.028173357248306274
1783080144403323400,4.965323486328125,-0.12257766723632812,-0.0341109037399292,-0.005130797624588013
1783080144423172900,4.9851728515625,-0.1278057098388672,-0.03588944673538208,-0.017144307494163513
1783080144443022300,5.005022216796875,-0.0079345703125,-0.06348736584186554,-0.046583011746406555
1783080144463025700,5.025025634765625,-0.0007638931274414062,-0.04630289971828461,-0.040063485503196716
1783080144482721500,5.044721435546875,-0.009966850280761719,-0.011103078722953796,0.0054395198822021484
1783080144502571000,5.064571044921875,-0.05361652374267578,-0.0006843209266662598,0.04446396231651306
1783080144522420500,5.08442041015625,-0.010265350341796875,-0.004363983869552612,0.025899246335029602
1783080144542270000,5.10427001953125,0.06630420684814453,-0.020238935947418213,-0.00839291512966156
1783080144562273500,5.1242734375,0.17737960815429688,0.011717274785041809,0.025227904319763184
1783080144581969400,5.143969482421875,0.1158895492553711,0.00264643132686615,0.10203363746404648
1783080144601819000,5.16381884765625,0.02886962890625,-0.009140253067016602,0.1083466038107872
1783080144621668400,5.18366845703125,0.02805805206298828,0.025705426931381226,0.032713234424591064
1783080144641672000,5.203671875,-0.019158363342285156,0.01013939082622528,0.012393563985824585
1783080144661522000,5.22352197265625,0.03937053680419922,-0.010067954659461975,0.049662113189697266
1783080144681371400,5.243371337890625,0.017238616943359375,-0.014870673418045044,0.05022190511226654
1783080144701067300,5.2630673828125,-0.08503341674804688,-0.026510313153266907,0.049849480390548706
1783080144720916700,5.282916748046875,-0.1236886978149414,0.020586103200912476,-0.03842674195766449
1783080144740766200,5.30276611328125,-0.1565713882446289,-0.0005230754613876343,-0.0654124766588211
1783080144760769800,5.322769775390625,-0.08442401885986328,0.0061612725257873535,-0.08608104288578033
1783080144780465400,5.34246533203125,0.008302688598632812,-0.033482640981674194,-0.09257489442825317
1783080144800469000,5.362468994140625,0.07247734069824219,-0.043105483055114746,-0.1304931640625
1783080144820164900,5.382164794921875,0.17638683319091797,-0.016034573316574097,-0.13206356763839722
1783080144840014300,5.402014404296875,0.11493110656738281,0.05011996626853943,-0.049686893820762634
1783080144860018000,5.422017822265625,-0.023000717163085938,0.02629491686820984,0.06325189769268036
1783080144879867600,5.44186767578125,-0.12390899658203125,0.07485386729240417,0.059727102518081665
1783080144899563300,5.461563232421875,-0.13368988037109375,0.07682611048221588,0.049323007464408875
1783080144919412700,5.481412841796875,-0.06467628479003906,0.058760613203048706,0.032594114542007446
1783080144939416300,5.501416259765625,0.05756950378417969,0.03273168206214905,0.03262326121330261
1783080144959266000,5.52126611328125,0.12264251708984375,0.04323963820934296,-0.04159089922904968
1783080144978962000,5.5409619140625,0.13933944702148438,-0.0003955960273742676,-0.08953312039375305
1783080144998811400,5.560811279296875,0.09070110321044922,-0.010514631867408752,-0.07727696001529694
1783080145018660900,5.580660888671875,-0.00487518310546875,-0.01551257073879242,-0.009436964988708496
1783080145038664400,5.60066455078125,0.030027389526367188,-0.00011523067951202393,-0.02736443281173706
1783080145058514200,5.62051416015625,0.05215740203857422,-0.007492825388908386,-0.0389893501996994
1783080145078209800,5.640209716796875,-0.009724617004394531,0.013343438506126404,-0.015733301639556885
1783080145098213400,5.66021337890625,-0.06026172637939453,0.03514456748962402,0.056030482053756714
1783080145118063000,5.68006298828125,-0.09989356994628906,0.03134419023990631,0.08712995052337646
1783080145137912800,5.699912841796875,-0.03183269500732422,0.021178022027015686,0.044000044465065
1783080145157608400,5.7196083984375,0.0824575424194336,-0.017285555601119995,0.009776666760444641
1783080145177458000,5.7394580078125,0.08419990539550781,-0.02624399960041046,0.018123120069503784
1783080145197307400,5.759307373046875,0.07911491394042969,-0.04494556784629822,0.02549053728580475
1783080145217156900,5.779156982421875,0.08815479278564453,-0.03421813249588013,-0.04615567624568939
1783080145237160700,5.79916064453125,-0.014235496520996094,-0.02291610836982727,-0.021776586771011353
1783080145256856300,5.818856201171875,-0.06229972839355469,-0.001324668526649475,0.014616519212722778
1783080145276705800,5.838705810546875,-0.1157541275024414,0.009994029998779297,0.06321533769369125
1783080145296555300,5.85855517578125,-0.16746807098388672,0.03788463771343231,0.06254712492227554
1783080145316559000,5.87855908203125,-0.06939315795898438,0.041432082653045654,0.02860066294670105
1783080145336408800,5.898408935546875,-0.06721687316894531,0.018756404519081116,0.02687723934650421
1783080145356104400,5.9181044921875,0.006579399108886719,0.004175320267677307,-0.0006635934114456177
1783080145376108000,5.93810791015625,0.05472564697265625,-0.00969475507736206,0.0023479610681533813
1783080145395803600,5.9578037109375,0.17304706573486328,-0.04991768300533295,-0.02006186544895172
1783080145415807200,5.97780712890625,0.2505006790161133,-0.08799919486045837,-0.06976567208766937
1783080145435657000,5.997656982421875,0.14504051208496094,-0.016347184777259827,-0.03678631782531738
1783080145455352600,6.0173525390625,0.022333145141601562,0.05844154953956604,0.030025631189346313
1783080145475356200,6.037356201171875,-0.08475875854492188,0.04028847813606262,0.060843393206596375
1783080145495206000,6.057205810546875,-0.028684616088867188,0.034290507435798645,0.022848084568977356
1783080145515055600,6.0770556640625,-0.004593849182128906,0.026755884289741516,0.0012871921062469482
1783080145534905000,6.096905029296875,-0.05065441131591797,0.02692064642906189,0.01556183397769928
1783080145554601000,6.11660107421875,-0.09744071960449219,0.05192919075489044,-0.012553215026855469
1783080145574450400,6.136450439453125,-0.10805988311767578,0.023857921361923218,-0.028614968061447144
1783080145594261500,6.156261474609375,-0.01898193359375,-0.0008934885263442993,-0.0719107985496521
1783080145614303200,6.17630322265625,0.07175540924072266,-0.06213463842868805,-0.055893853306770325
1783080145634153000,6.196153076171875,0.09709548950195312,-0.06435701251029968,-0.07665199041366577
1783080145653810200,6.21581005859375,0.03149890899658203,-0.05209265649318695,-0.06367652118206024
1783080145673659600,6.23565966796875,-0.06892013549804688,-0.010806217789649963,-0.06027407944202423
1783080145693509000,6.255509033203125,-0.1753377914428711,-0.009145766496658325,0.004086807370185852
1783080145713551400,6.27555126953125,-0.0492706298828125,-0.003997117280960083,-0.06031025946140289
1783080145733401000,6.295401123046875,0.0008039474487304688,-0.037643805146217346,0.019105583429336548
1783080145753096700,6.3150966796875,0.130279541015625,0.006966978311538696,0.025935500860214233
1783080145772946200,6.3349462890625,0.07961654663085938,0.020299896597862244,0.053005702793598175
1783080145792795600,6.354795654296875,0.08162975311279297,0.018535137176513672,0.03845198452472687
1783080145812799500,6.374799560546875,0.03735828399658203,-0.026654765009880066,0.0034842193126678467
1783080145832495000,6.3944951171875,0.013138771057128906,-0.012039020657539368,-0.008167669177055359
1783080145852344600,6.414344482421875,-0.03811454772949219,0.013605862855911255,0.013696834444999695
1783080145872194000,6.434194091796875,-0.09237480163574219,0.00438535213470459,0.06311377137899399
1783080145892043800,6.454043701171875,-0.10320472717285156,0.005757033824920654,0.03584158420562744
1783080145912047400,6.47404736328125,-0.0812540054321289,-0.0102061927318573,0.025694966316223145
1783080145931743000,6.493742919921875,-0.0624542236328125,0.009431079030036926,0.008047834038734436
1783080145951592400,6.513592529296875,0.08060455322265625,-0.02887679636478424,-0.016224414110183716
1783080145971442200,6.533442138671875,0.19576549530029297,-0.04188358783721924,-0.043038830161094666
1783080145991291600,6.553291748046875,0.1753253936767578,-0.03167673945426941,0.03269539773464203
1783080146011295500,6.57329541015625,0.13956069946289062,-0.011712327599525452,0.06746909022331238
1783080146030991000,6.5929912109375,-0.11006450653076172,0.05215840041637421,0.08655326068401337
1783080146050840600,6.612840576171875,-0.1731548309326172,0.080035001039505,0.065552718937397
1783080146070690300,6.632690185546875,-0.266876220703125,0.004100769758224487,-0.027421727776527405
1783080146110543600,6.672543701171875,-0.014330863952636719,-0.007804363965988159,-0.0011684000492095947
1783080146130393300,6.692393310546875,-0.09471893310546875,-0.019692137837409973,0.0039038360118865967
1783080146150243000,6.7122431640625,-0.04780769348144531,0.016093075275421143,-0.11676108837127686
