time,seconds_elapsed,z,y,x
1783081109159363600,0.109363525390625,9.827920913696289,0.061016976833343506,-0.04486542567610741
1783081109179225600,0.1292255859375,9.8207426071167,0.06580262631177902,-0.03768695518374443
1783081109199069200,0.149069091796875,9.839884757995605,0.05144568532705307,-0.03768695518374443
1783081109218917400,0.16891748046875,9.835099220275879,0.07537391036748886,-0.04007977992296219
1783081109238765600,0.188765625,9.818349838256836,0.06819544732570648,-0.04247260093688965
1783081109258614000,0.208614013671875,9.847063064575195,0.08015955984592438,-0.04247260093688965
1783081109278462700,0.228462646484375,9.832706451416016,0.08255238085985184,-0.047258246690034866
1783081109298311400,0.2483115234375,9.837491989135742,0.06340979784727097,-0.04486542567610741
1783081109318160100,0.26816015625,9.827920913696289,0.06340979784727097,-0.04486542567610741
1783081109338009000,0.288009033203125,9.835099220275879,0.06819544732570648,-0.04007977992296219
1783081109357857800,0.30785791015625,9.837491989135742,0.061016976833343506,-0.054436713457107544
1783081109377706800,0.327706787109375,9.854242324829102,0.08015955984592438,-0.04486542567610741
1783081109397555700,0.3475556640625,9.849455833435059,0.058624155819416046,-0.047258246690034866
1783081109417404700,0.36740478515625,9.818349838256836,0.061016976833343506,-0.047258246690034866
1783081109437253600,0.387253662109375,9.837491989135742,0.05623133108019829,-0.04486542567610741
1783081109457102600,0.4071025390625,9.842277526855469,0.061016976833343506,-0.03768695518374443
1783081109476951600,0.42695166015625,9.835099220275879,0.06819544732570648,-0.04007977992296219
1783081109496800500,0.446800537109375,9.827920913696289,0.07776673883199692,-0.04486542567610741
1783081109516641800,0.466641845703125,9.847063064575195,0.06340979784727097,-0.052043892443180084
1783081109536423200,0.486423095703125,9.832706451416016,0.0729810893535614,-0.04247260093688965
1783081109556349000,0.506348876953125,9.837491989135742,0.0729810893535614,-0.054436713457107544
1783081109576197600,0.52619775390625,9.825528144836426,0.07776673883199692,-0.047258246690034866
1783081109596046300,0.54604638671875,9.832706451416016,0.06580262631177902,-0.0568295381963253
1783081109615895300,0.565895263671875,9.830313682556152,0.07058826833963394,-0.054436713457107544
1783081109635744300,0.585744140625,9.830313682556152,0.06580262631177902,-0.0568295381963253
1783081109655593200,0.60559326171875,9.839884757995605,0.06580262631177902,-0.04247260093688965
1783081109675442200,0.625442138671875,9.844670295715332,0.06340979784727097,-0.04247260093688965
1783081109695291100,0.645291015625,9.815957069396973,0.06580262631177902,-0.04247260093688965
1783081109715140000,0.66514013671875,9.832706451416016,0.08015955984592438,-0.049651071429252625
1783081109734989000,0.684989013671875,9.837491989135742,0.07537391036748886,-0.049651071429252625
1783081109754838000,0.704838134765625,9.832706451416016,0.06819544732570648,-0.03768695518374443
1783081109774687200,0.724687255859375,9.832706451416016,0.06340979784727097,-0.04247260093688965
1783081109794536200,0.7445361328125,9.827920913696289,0.0729810893535614,-0.04007977992296219
1783081109814381300,0.76438134765625,9.839884757995605,0.06580262631177902,-0.04247260093688965
1783081109834177300,0.78417724609375,9.839884757995605,0.07058826833963394,-0.054436713457107544
1783081109853895700,0.803895751953125,9.835099220275879,0.061016976833343506,-0.047258246690034866
1783081109873932000,0.82393212890625,9.823135375976562,0.07058826833963394,-0.04486542567610741
1783081109893727000,0.84372705078125,9.827920913696289,0.06580262631177902,-0.03768695518374443
1783081109913425400,0.86342529296875,9.851848602294922,0.07058826833963394,-0.049651071429252625
1783081109933276700,0.883276611328125,9.842277526855469,0.06580262631177902,-0.04247260093688965
1783081109953147000,0.90314697265625,9.839884757995605,0.08255238085985184,-0.052043892443180084
1783081109973186000,0.92318603515625,9.830313682556152,0.08015955984592438,-0.04486542567610741
1783081109993014300,0.94301416015625,9.837491989135742,0.06580262631177902,-0.04486542567610741
1783081110012673300,0.96267333984375,9.835099220275879,0.07058826833963394,-0.04247260093688965
1783081110032524000,0.98252392578125,9.830313682556152,0.06819544732570648,-0.04247260093688965
1783081110052394000,1.00239404296875,9.844670295715332,0.08015955984592438,-0.04247260093688965
1783081110072413400,1.022413330078125,9.832706451416016,0.08015955984592438,-0.04247260093688965
1783081110092072000,1.042072021484375,9.830313682556152,0.06819544732570648,-0.04247260093688965
1783081110111941600,1.061941650390625,9.830313682556152,0.06819544732570648,-0.03290131315588951
1783081110131961000,1.081961181640625,9.837491989135742,0.06819544732570648,-0.03529413416981697
1783081110151638800,1.101638671875,9.827920913696289,0.07058826833963394,-0.04247260093688965
1783081110171658500,1.121658447265625,9.825528144836426,0.06580262631177902,-0.03529413416981697
1783081110191320800,1.14132080078125,9.832706451416016,0.0729810893535614,-0.04486542567610741
1783081110211208700,1.161208740234375,9.830313682556152,0.07537391036748886,-0.04007977992296219
1783081110231058200,1.18105810546875,9.830313682556152,0.06580262631177902,-0.04486542567610741
1783081110250923300,1.20092333984375,9.837491989135742,0.07537391036748886,-0.03529413416981697
1783081110270908200,1.220908203125,9.837491989135742,0.06819544732570648,-0.04007977992296219
1783081110290600200,1.24060009765625,9.832706451416016,0.0729810893535614,-0.047258246690034866
1783081110310412000,1.260412109375,9.839884757995605,0.08015955984592438,-0.052043892443180084
1783081110330262300,1.28026220703125,9.830313682556152,0.06580262631177902,-0.04486542567610741
1783081110350131700,1.300131591796875,9.835099220275879,0.0729810893535614,-0.04486542567610741
1783081110370151000,1.32015087890625,9.825528144836426,0.06580262631177902,-0.04007977992296219
1783081110389828400,1.339828369140625,9.835099220275879,0.07058826833963394,-0.03768695518374443
1783081110409847800,1.359847900390625,9.839884757995605,0.06580262631177902,-0.04247260093688965
1783081110429525500,1.379525390625,9.837491989135742,0.058624155819416046,-0.04247260093688965
1783081110449564400,1.399564453125,9.827920913696289,0.07058826833963394,-0.049651071429252625
1783081110469392400,1.419392333984375,9.835099220275879,0.07058826833963394,-0.047258246690034866
1783081110489051100,1.439051025390625,9.830313682556152,0.07776673883199692,-0.04486542567610741
1783081110508901600,1.458901611328125,9.832706451416016,0.06580262631177902,-0.05922235921025276
1783081110528771600,1.478771484375,9.832706451416016,0.07058826833963394,-0.04247260093688965
1783081110548791000,1.498791015625,9.823135375976562,0.05383851006627083,-0.04007977992296219
1783081110568449300,1.51844921875,9.830313682556152,0.06819544732570648,-0.04247260093688965
1783081110588299300,1.53829931640625,9.827920913696289,0.06819544732570648,-0.047258246690034866
1783081110608149200,1.558149169921875,9.837491989135742,0.07537391036748886,-0.04007977992296219
1783081110628018700,1.578018798828125,9.832706451416016,0.07776673883199692,-0.0568295381963253
1783081110648038000,1.598037841796875,9.827920913696289,0.05623133108019829,-0.03290131315588951
1783081110667707400,1.617707275390625,9.8207426071167,0.0729810893535614,-0.03290131315588951
1783081110687658800,1.63765869140625,9.8207426071167,0.07537391036748886,-0.047258246690034866
1783081110707413500,1.65741357421875,9.8207426071167,0.07058826833963394,-0.054436713457107544
1783081110727452000,1.677451904296875,9.832706451416016,0.05144568532705307,-0.047258246690034866
1783081110747279600,1.697279541015625,9.8207426071167,0.06580262631177902,-0.03290131315588951
1783081110766938000,1.716938232421875,9.837491989135742,0.06340979784727097,-0.03529413416981697
1783081110786788600,1.73678857421875,9.844670295715332,0.0729810893535614,-0.04007977992296219
1783081110806658600,1.756658447265625,9.827920913696289,0.07537391036748886,-0.04007977992296219
1783081110826697000,1.776697021484375,9.832706451416016,0.08255238085985184,-0.06161518394947052
1783081110846524700,1.796524658203125,9.823135375976562,0.061016976833343506,-0.0568295381963253
1783081110866183400,1.816183349609375,9.847063064575195,0.07058826833963394,-0.03290131315588951
1783081110886034000,1.836033935546875,9.835099220275879,0.07776673883199692,-0.04247260093688965
1783081110905903600,1.855903564453125,9.835099220275879,0.07058826833963394,-0.04007977992296219
1783081110925942300,1.8759423828125,9.827920913696289,0.06580262631177902,-0.03529413416981697
1783081110945789200,1.8957890625,9.830313682556152,0.06340979784727097,-0.047258246690034866
1783081110965617200,1.9156171875,9.839884757995605,0.06580262631177902,-0.049651071429252625
1783081110985276200,1.935276123046875,9.827920913696289,0.061016976833343506,-0.04247260093688965
1783081111005146600,1.955146728515625,9.827920913696289,0.07058826833963394,-0.054436713457107544
1783081111025185500,1.975185546875,9.839884757995605,0.08015955984592438,-0.049651071429252625
1783081111045013800,1.995013671875,9.837491989135742,0.06819544732570648,-0.04247260093688965
1783081111064672800,2.0146728515625,9.835099220275879,0.05144568532705307,-0.04007977992296219
1783081111084543000,2.03454296875,9.825528144836426,0.06580262631177902,-0.03768695518374443
1783081111104582000,2.054581787109375,9.839884757995605,0.0729810893535614,-0.049651071429252625
1783081111124429000,2.074428955078125,9.8207426071167,0.07058826833963394,-0.03768695518374443
1783081111144257500,2.094257568359375,9.832706451416016,0.0729810893535614,-0.04247260093688965
1783081111163916800,2.113916748046875,9.806385040283203,0.0729810893535614,-0.03768695518374443
1783081111183767600,2.133767578125,9.832706451416016,0.08255238085985184,-0.049651071429252625
1783081111203637800,2.1536376953125,9.8207426071167,0.0849452018737793,-0.054436713457107544
1783081111223676700,2.1736767578125,9.827920913696289,0.06580262631177902,-0.04486542567610741
1783081111243508500,2.193508544921875,9.81117057800293,0.07537391036748886,-0.04247260093688965
1783081111263205000,2.213205078125,9.842277526855469,0.05623133108019829,-0.04007977992296219
1783081111283055000,2.23305517578125,9.837491989135742,0.07058826833963394,-0.04486542567610741
1783081111302920400,2.25292041015625,9.818349838256836,0.06819544732570648,-0.054436713457107544
1783081111322902000,2.272902099609375,9.837491989135742,0.07776673883199692,-0.03768695518374443
1783081111342560500,2.292560546875,9.832706451416016,0.06580262631177902,-0.049651071429252625
1783081111362411000,2.312410888671875,9.832706451416016,0.06340979784727097,-0.03768695518374443
1783081111382261200,2.33226123046875,9.835099220275879,0.07058826833963394,-0.047258246690034866
1783081111402130700,2.352130615234375,9.835099220275879,0.06819544732570648,-0.054436713457107544
1783081111422150000,2.37214990234375,9.835099220275879,0.06819544732570648,-0.04486542567610741
1783081111441827300,2.391827392578125,9.818349838256836,0.08255238085985184,-0.04486542567610741
1783081111461847000,2.411846923828125,9.818349838256836,0.07058826833963394,-0.03290131315588951
1783081111481505300,2.43150537109375,9.832706451416016,0.06819544732570648,-0.04486542567610741
1783081111501375000,2.451375,9.818349838256836,0.07537391036748886,-0.04247260093688965
1783081111521413600,2.47141357421875,9.832706451416016,0.06819544732570648,-0.047258246690034866
1783081111541260500,2.491260498046875,9.830313682556152,0.0729810893535614,-0.06161518394947052
1783081111561088500,2.511088623046875,9.832706451416016,0.07776673883199692,-0.04486542567610741
1783081111580767200,2.530767333984375,9.827920913696289,0.0729810893535614,-0.04247260093688965
1783081111600806400,2.550806396484375,9.835099220275879,0.05144568532705307,-0.03529413416981697
1783081111620654000,2.570654052734375,9.827920913696289,0.06819544732570648,-0.03529413416981697
1783081111640501800,2.590501708984375,9.844670295715332,0.08255238085985184,-0.047258246690034866
1783081111660330800,2.610330810546875,9.827920913696289,0.0729810893535614,-0.054436713457107544
1783081111680010000,2.630010009765625,9.832706451416016,0.07776673883199692,-0.052043892443180084
1783081111700049700,2.650049560546875,9.827920913696289,0.07058826833963394,-0.03768695518374443
1783081111719897600,2.669897705078125,9.818349838256836,0.06580262631177902,-0.04486542567610741
1783081111739745800,2.689745849609375,9.827920913696289,0.07058826833963394,-0.04486542567610741
1783081111759594200,2.70959423828125,9.844670295715332,0.0729810893535614,-0.052043892443180084
1783081111779442400,2.7294423828125,9.825528144836426,0.07058826833963394,-0.047258246690034866
1783081111799291100,2.749291015625,9.830313682556152,0.06580262631177902,-0.03768695518374443
1783081111819139800,2.769139892578125,9.839884757995605,0.06580262631177902,-0.028115665540099144
1783081111838988500,2.788988525390625,9.8207426071167,0.07537391036748886,-0.047258246690034866
1783081111858837500,2.80883740234375,9.825528144836426,0.07537391036748886,-0.052043892443180084
1783081111878686200,2.828686279296875,9.842277526855469,0.07537391036748886,-0.054436713457107544
1783081111898535200,2.84853515625,9.827920913696289,0.05383851006627083,-0.04007977992296219
1783081111918384000,2.868384033203125,9.837491989135742,0.06340979784727097,-0.04247260093688965
1783081111938233000,2.888233154296875,9.825528144836426,0.06819544732570648,-0.03529413416981697
1783081111958082000,2.90808203125,9.827920913696289,0.06340979784727097,-0.049651071429252625
1783081111977931000,2.927930908203125,9.823135375976562,0.0729810893535614,-0.049651071429252625
1783081111997780000,2.947780029296875,9.837491989135742,0.07058826833963394,-0.049651071429252625
1783081112017629000,2.96762890625,9.8207426071167,0.0729810893535614,-0.04486542567610741
1783081112037478000,2.987477783203125,9.849455833435059,0.06580262631177902,-0.04007977992296219
1783081112057326800,3.007326904296875,9.823135375976562,0.06819544732570648,-0.03768695518374443
1783081112077176000,3.027176025390625,9.832706451416016,0.058624155819416046,-0.04486542567610741
1783081112097025000,3.04702490234375,9.825528144836426,0.07537391036748886,-0.05922235921025276
1783081112116874000,3.0668740234375,9.827920913696289,0.07537391036748886,-0.047258246690034866
1783081112136723200,3.08672314453125,9.849455833435059,0.061016976833343506,-0.052043892443180084
1783081112156572200,3.106572265625,9.830313682556152,0.06819544732570648,-0.03768695518374443
1783081112176409600,3.12640966796875,9.8207426071167,0.06580262631177902,-0.03768695518374443
1783081112196157200,3.1461572265625,9.825528144836426,0.07776673883199692,-0.054436713457107544
1783081112216121000,3.16612109375,9.839884757995605,0.08255238085985184,-0.054436713457107544
1783081112235969800,3.1859697265625,9.844670295715332,0.07058826833963394,-0.049651071429252625
1783081112255818500,3.205818603515625,9.823135375976562,0.07537391036748886,-0.047258246690034866
1783081112275667200,3.225667236328125,9.842277526855469,0.06340979784727097,-0.03768695518374443
1783081112295516200,3.24551611328125,9.842277526855469,0.0729810893535614,-0.047258246690034866
1783081112315365000,3.265365234375,9.837491989135742,0.08255238085985184,-0.05922235921025276
1783081112335214000,3.285214111328125,9.835099220275879,0.07058826833963394,-0.049651071429252625
1783081112355063000,3.30506298828125,9.825528144836426,0.0729810893535614,-0.049651071429252625
1783081112374911700,3.324911865234375,9.832706451416016,0.07537391036748886,-0.049651071429252625
1783081112394761000,3.344760986328125,9.837491989135742,0.08015955984592438,-0.03529413416981697
1783081112414610000,3.36460986328125,9.832706451416016,0.061016976833343506,-0.04007977992296219
1783081112434459000,3.384458984375,9.827920913696289,0.06819544732570648,-0.06161518394947052
1783081112454307800,3.404307861328125,9.835099220275879,0.07058826833963394,-0.0568295381963253
1783081112474156800,3.42415673828125,9.832706451416016,0.06819544732570648,-0.04247260093688965
1783081112494006000,3.444006103515625,9.8207426071167,0.07537391036748886,-0.03529413416981697
1783081112513835800,3.463835693359375,9.832706451416016,0.0729810893535614,-0.049651071429252625
1783081112533496300,3.483496337890625,9.851848602294922,0.08255238085985184,-0.049651071429252625
1783081112553367600,3.503367431640625,9.825528144836426,0.06819544732570648,-0.0568295381963253
1783081112573388300,3.52338818359375,9.847063064575195,0.061016976833343506,-0.0568295381963253
1783081112593047600,3.543047607421875,9.823135375976562,0.07537391036748886,-0.04247260093688965
1783081112612898600,3.562898681640625,9.832706451416016,0.06580262631177902,-0.025722842663526535
1783081112632749000,3.5827490234375,9.830313682556152,0.06819544732570648,-0.049651071429252625
1783081112652619000,3.602618896484375,9.827920913696289,0.061016976833343506,-0.03290131315588951
1783081112672638500,3.622638427734375,9.832706451416016,0.07058826833963394,-0.047258246690034866
1783081112692296700,3.642296630859375,9.847063064575195,0.07058826833963394,-0.03529413416981697
1783081112712147000,3.66214697265625,9.825528144836426,0.06819544732570648,-0.04247260093688965
1783081112731997000,3.681996826171875,9.823135375976562,0.0729810893535614,-0.03529413416981697
1783081112751866400,3.701866455078125,9.830313682556152,0.07537391036748886,-0.054436713457107544
1783081112771904500,3.721904541015625,9.835099220275879,0.06340979784727097,-0.047258246690034866
1783081112791732000,3.74173193359375,9.837491989135742,0.06819544732570648,-0.047258246690034866
1783081112811390500,3.761390380859375,9.830313682556152,0.06819544732570648,-0.04247260093688965
1783081112831240700,3.78124072265625,9.844670295715332,0.06580262631177902,-0.028115665540099144
1783081112851110400,3.8011103515625,9.832706451416016,0.06580262631177902,-0.049651071429252625
1783081112871129600,3.821129638671875,9.818349838256836,0.07537391036748886,-0.03768695518374443
1783081112890787800,3.840787841796875,9.837491989135742,0.06580262631177902,-0.052043892443180084
1783081112910657300,3.8606572265625,9.825528144836426,0.06819544732570648,-0.03768695518374443
1783081112930676700,3.8806767578125,9.844670295715332,0.0729810893535614,-0.04007977992296219
1783081112950354400,3.9003544921875,9.835099220275879,0.06580262631177902,-0.04247260093688965
1783081112970374000,3.920373779296875,9.839884757995605,0.07058826833963394,-0.04007977992296219
1783081112990032100,3.9400322265625,9.835099220275879,0.06819544732570648,-0.049651071429252625
1783081113009882400,3.95988232421875,9.832706451416016,0.07537391036748886,-0.04247260093688965
1783081113029732400,3.979732421875,9.8207426071167,0.061016976833343506,-0.04007977992296219
1783081113049601800,3.999601806640625,9.835099220275879,0.061016976833343506,-0.04247260093688965
1783081113069621000,4.01962109375,9.837491989135742,0.06340979784727097,-0.049651071429252625
1783081113089279000,4.039279052734375,9.832706451416016,0.07537391036748886,-0.04247260093688965
1783081113109128700,4.059128662109375,9.825528144836426,0.06340979784727097,-0.04247260093688965
1783081113128998100,4.078998046875,9.847063064575195,0.07058826833963394,-0.04486542567610741
1783081113149036300,4.099036376953125,9.825528144836426,0.08015955984592438,-0.04007977992296219
1783081113168863700,4.11886376953125,9.832706451416016,0.0729810893535614,-0.049651071429252625
1783081113188541700,4.138541748046875,9.8207426071167,0.07537391036748886,-0.047258246690034866
1783081113208561400,4.1585615234375,9.827920913696289,0.0729810893535614,-0.04007977992296219
1783081113228239600,4.178239501953125,9.827920913696289,0.0729810893535614,-0.054436713457107544
1783081113248259300,4.19825927734375,9.844670295715332,0.06580262631177902,-0.03529413416981697
1783081113267917800,4.217917724609375,9.825528144836426,0.06580262631177902,-0.04007977992296219
1783081113287788000,4.2377880859375,9.832706451416016,0.061016976833343506,-0.04007977992296219
1783081113307826700,4.25782666015625,9.839884757995605,0.0729810893535614,-0.0568295381963253
1783081113327673900,4.277673828125,9.837491989135742,0.07776673883199692,-0.049651071429252625
1783081113347505700,4.297505615234375,9.839884757995605,0.06580262631177902,-0.049651071429252625
1783081113367202600,4.31720263671875,9.815957069396973,0.06819544732570648,-0.03768695518374443
1783081113387049000,4.337049072265625,9.815957069396973,0.06580262631177902,-0.054436713457107544
1783081113406880800,4.356880859375,9.837491989135742,0.06819544732570648,-0.04007977992296219
1783081113426920000,4.376919921875,9.825528144836426,0.06340979784727097,-0.04486542567610741
1783081113446748000,4.396747802734375,9.830313682556152,0.06580262631177902,-0.04247260093688965
1783081113466426400,4.41642626953125,9.837491989135742,0.08733802288770676,-0.052043892443180084
1783081113486446600,4.436446533203125,9.839884757995605,0.06819544732570648,-0.025722842663526535
1783081113506124800,4.456124755859375,9.830313682556152,0.06340979784727097,-0.049651071429252625
1783081113526164200,4.476164306640625,9.832706451416016,0.06819544732570648,-0.04247260093688965
1783081113545992400,4.495992431640625,9.847063064575195,0.08015955984592438,-0.052043892443180084
1783081113565651500,4.5156513671875,9.830313682556152,0.0729810893535614,-0.03290131315588951
1783081113585502500,4.53550244140625,9.823135375976562,0.058624155819416046,-0.047258246690034866
1783081113605372400,4.555372314453125,9.825528144836426,0.058624155819416046,-0.04247260093688965
1783081113625411000,4.5754111328125,9.835099220275879,0.06580262631177902,-0.03768695518374443
1783081113645239000,4.595239013671875,9.823135375976562,0.06819544732570648,-0.0568295381963253
1783081113664897800,4.614897705078125,9.832706451416016,0.07537391036748886,-0.03768695518374443
1783081113684748500,4.63474853515625,9.835099220275879,0.07776673883199692,-0.04486542567610741
1783081113704614400,4.654614501953125,9.832706451416016,0.06819544732570648,-0.04007977992296219
1783081113724619000,4.674618896484375,9.837491989135742,0.07058826833963394,-0.03529413416981697
1783081113744485400,4.6944853515625,9.832706451416016,0.06340979784727097,-0.04007977992296219
1783081113764143900,4.714143798828125,9.835099220275879,0.0849452018737793,-0.04486542567610741
1783081113783994400,4.733994384765625,9.835099220275879,0.06819544732570648,-0.052043892443180084
1783081113803864000,4.753864013671875,9.835099220275879,0.06819544732570648,-0.04486542567610741
1783081113823902700,4.77390283203125,9.830313682556152,0.061016976833343506,-0.052043892443180084
1783081113843730200,4.793730224609375,9.818349838256836,0.06580262631177902,-0.049651071429252625
1783081113863389000,4.813388916015625,9.830313682556152,0.08015955984592438,-0.0568295381963253
1783081113883239400,4.833239501953125,9.851848602294922,0.06819544732570648,-0.0568295381963253
1783081113903109000,4.853109130859375,9.827920913696289,0.05383851006627083,-0.047258246690034866
1783081113923128600,4.873128662109375,9.825528144836426,0.05623133108019829,-0.04007977992296219
1783081113942786800,4.892786865234375,9.830313682556152,0.06340979784727097,-0.04247260093688965
1783081113962636800,4.91263671875,9.847063064575195,0.07058826833963394,-0.030508488416671753
1783081113982486800,4.93248681640625,9.830313682556152,0.07058826833963394,-0.05922235921025276
1783081114002356000,4.95235595703125,9.825528144836426,0.06340979784727097,-0.049651071429252625
1783081114022375200,4.972375244140625,9.832706451416016,0.07058826833963394,-0.047258246690034866
1783081114042033200,4.992033203125,9.815957069396973,0.05383851006627083,-0.054436713457107544
1783081114061883000,5.0118828125,9.830313682556152,0.06580262631177902,-0.04007977992296219
1783081114081752300,5.03175244140625,9.837491989135742,0.08255238085985184,-0.04247260093688965
1783081114101790500,5.05179052734375,9.815957069396973,0.0729810893535614,-0.047258246690034866
1783081114121618000,5.071617919921875,9.835099220275879,0.0729810893535614,-0.03529413416981697
1783081114141295900,5.0912958984375,9.832706451416016,0.06340979784727097,-0.052043892443180084
1783081114161315800,5.11131591796875,9.835099220275879,0.0729810893535614,-0.054436713457107544
1783081114180974300,5.130974365234375,9.832706451416016,0.0729810893535614,-0.054436713457107544
1783081114200844000,5.150843994140625,9.842277526855469,0.0729810893535614,-0.049651071429252625
1783081114220883000,5.170883056640625,9.832706451416016,0.07537391036748886,-0.03529413416981697
1783081114240729900,5.190729736328125,9.827920913696289,0.07537391036748886,-0.04247260093688965
1783081114260577300,5.210577392578125,9.8207426071167,0.06580262631177902,-0.04007977992296219
1783081114280405800,5.23040576171875,9.842277526855469,0.06819544732570648,-0.04007977992296219
1783081114300084700,5.250084716796875,9.849455833435059,0.07058826833963394,-0.047258246690034866
1783081114320124400,5.27012451171875,9.835099220275879,0.06819544732570648,-0.04247260093688965
1783081114339972000,5.28997216796875,9.81356430053711,0.06580262631177902,-0.054436713457107544
1783081114359820300,5.3098203125,9.839884757995605,0.07537391036748886,-0.04247260093688965
1783081114379668500,5.32966845703125,9.839884757995605,0.07058826833963394,-0.04247260093688965
1783081114399516700,5.3495166015625,9.815957069396973,0.08255238085985184,-0.04007977992296219
1783081114419365000,5.369365234375,9.835099220275879,0.07776673883199692,-0.047258246690034866
1783081114439213800,5.3892138671875,9.823135375976562,0.07537391036748886,-0.049651071429252625
1783081114459062500,5.4090625,9.830313682556152,0.07537391036748886,-0.04007977992296219
1783081114478911200,5.4289111328125,9.842277526855469,0.04666004329919815,-0.04247260093688965
1783081114498760200,5.44876025390625,9.835099220275879,0.0729810893535614,-0.04247260093688965
1783081114518609000,5.46860888671875,9.815957069396973,0.06819544732570648,-0.054436713457107544
1783081114538457900,5.488457763671875,9.823135375976562,0.0729810893535614,-0.054436713457107544
1783081114558306800,5.508306884765625,9.837491989135742,0.06580262631177902,-0.04247260093688965
1783081114578155800,5.52815576171875,9.825528144836426,0.061016976833343506,-0.04247260093688965
1783081114598004700,5.548004638671875,9.832706451416016,0.06580262631177902,-0.020937198773026466
1783081114617854000,5.56785400390625,9.830313682556152,0.061016976833343506,-0.028115665540099144
1783081114637703000,5.587702880859375,9.839884757995605,0.061016976833343506,-0.04486542567610741
1783081114657552000,5.6075517578125,9.839884757995605,0.06819544732570648,-0.04247260093688965
1783081114677400800,5.62740087890625,9.847063064575195,0.0849452018737793,-0.054436713457107544
1783081114697249800,5.647249755859375,9.827920913696289,0.08255238085985184,-0.028115665540099144
1783081114717099000,5.66709912109375,9.825528144836426,0.08015955984592438,-0.03529413416981697
1783081114736948000,5.686947998046875,9.832706451416016,0.07058826833963394,-0.047258246690034866
1783081114756797000,5.706796875,9.827920913696289,0.07537391036748886,-0.054436713457107544
1783081114776646100,5.726646240234375,9.844670295715332,0.07537391036748886,-0.03768695518374443
1783081114796495000,5.7464951171875,9.832706451416016,0.07537391036748886,-0.049651071429252625
1783081114816344000,5.766343994140625,9.830313682556152,0.06580262631177902,-0.049651071429252625
1783081114836193000,5.786193115234375,9.842277526855469,0.06580262631177902,-0.049651071429252625
1783081114856042200,5.806042236328125,9.835099220275879,0.06819544732570648,-0.04247260093688965
1783081114875891200,5.82589111328125,9.823135375976562,0.0729810893535614,-0.0568295381963253
1783081114895740200,5.845740234375,9.830313682556152,0.058624155819416046,-0.052043892443180084
1783081114915589400,5.86558935546875,9.825528144836426,0.07058826833963394,-0.047258246690034866
1783081114935438300,5.885438232421875,9.839884757995605,0.0729810893535614,-0.04007977992296219
1783081114955287300,5.905287353515625,9.837491989135742,0.06819544732570648,-0.04007977992296219
1783081114975136500,5.925136474609375,9.837491989135742,0.07058826833963394,-0.054436713457107544
1783081114994985500,5.9449853515625,9.825528144836426,0.07058826833963394,-0.052043892443180084
1783081115014834400,5.96483447265625,9.830313682556152,0.0729810893535614,-0.025722842663526535
1783081115034683600,5.98468359375,9.815957069396973,0.058624155819416046,-0.04486542567610741
1783081115054532600,6.00453271484375,9.839884757995605,0.058624155819416046,-0.049651071429252625
1783081115074381600,6.024381591796875,9.847063064575195,0.07058826833963394,-0.03290131315588951
1783081115094211600,6.044211669921875,9.839884757995605,0.07537391036748886,-0.049651071429252625
1783081115113872100,6.0638720703125,9.823135375976562,0.07058826833963394,-0.04007977992296219
1783081115133724000,6.083723876953125,9.832706451416016,0.061016976833343506,-0.04247260093688965
1783081115153594600,6.1035947265625,9.832706451416016,0.06819544732570648,-0.052043892443180084
1783081115173614800,6.12361474609375,9.835099220275879,0.06819544732570648,-0.04486542567610741
1783081115193273900,6.14327392578125,9.823135375976562,0.06819544732570648,-0.0568295381963253
1783081115213124600,6.16312451171875,9.827920913696289,0.061016976833343506,-0.047258246690034866
1783081115232974800,6.182974853515625,9.832706451416016,0.06340979784727097,-0.03768695518374443
1783081115252844500,6.202844482421875,9.832706451416016,0.06340979784727097,-0.04007977992296219
1783081115272864000,6.222864013671875,9.849455833435059,0.0729810893535614,-0.04486542567610741
1783081115292541700,6.242541748046875,9.825528144836426,0.0729810893535614,-0.03529413416981697
1783081115312561200,6.26256103515625,9.830313682556152,0.06580262631177902,-0.03290131315588951
1783081115332219400,6.282219482421875,9.830313682556152,0.08015955984592438,-0.05922235921025276
1783081115352089300,6.30208935546875,9.825528144836426,0.06819544732570648,-0.049651071429252625
1783081115372108800,6.32210888671875,9.835099220275879,0.07058826833963394,-0.04486542567610741
1783081115391786500,6.341786376953125,9.842277526855469,0.06580262631177902,-0.04247260093688965
1783081115411810000,6.36181005859375,9.827920913696289,0.06819544732570648,-0.04486542567610741
1783081115431506000,6.381505859375,9.823135375976562,0.08973085135221481,-0.05922235921025276
1783081115451371300,6.401371337890625,9.823135375976562,0.06580262631177902,-0.03529413416981697
1783081115471356700,6.421356689453125,9.823135375976562,0.06819544732570648,-0.04007977992296219
1783081115491052800,6.441052734375,9.835099220275879,0.07776673883199692,-0.04486542567610741
1783081115510898700,6.460898681640625,9.825528144836426,0.0729810893535614,-0.04486542567610741
1783081115530710500,6.48071044921875,9.837491989135742,0.06580262631177902,-0.049651071429252625
1783081115550580200,6.500580322265625,9.8207426071167,0.06819544732570648,-0.04486542567610741
1783081115570619000,6.520618896484375,9.847063064575195,0.06819544732570648,-0.04486542567610741
1783081115590446300,6.5404462890625,9.825528144836426,0.08973085135221481,-0.049651071429252625
1783081115610105000,6.56010498046875,9.827920913696289,0.06819544732570648,-0.049651071429252625
1783081115629975000,6.57997509765625,9.827920913696289,0.07537391036748886,-0.04247260093688965
1783081115669656600,6.619656494140625,9.830313682556152,0.07537391036748886,-0.04247260093688965
1783081115689501700,6.639501708984375,9.844670295715332,0.07537391036748886,-0.047258246690034866
1783081115709375700,6.659375732421875,9.835099220275879,0.06819544732570648,-0.04247260093688965
1783081115729413600,6.67941357421875,9.827920913696289,0.06580262631177902,-0.03768695518374443
1783081115749260000,6.699260009765625,9.837491989135742,0.07058826833963394,-0.04247260093688965
1783081115769087700,6.719087646484375,9.827920913696289,0.06580262631177902,-0.04007977992296219
1783081115788746200,6.738746337890625,9.844670295715332,0.06819544732570648,-0.028115665540099144
1783081115808616400,6.758616455078125,9.835099220275879,0.08255238085985184,-0.04247260093688965
1783081115828655000,6.778655029296875,9.842277526855469,0.08255238085985184,-0.054436713457107544
1783081115848502300,6.798502197265625,9.823135375976562,0.0729810893535614,-0.04486542567610741
1783081115868334300,6.818334228515625,9.830313682556152,0.06580262631177902,-0.04247260093688965
1783081115888031200,6.83803125,9.825528144836426,0.0729810893535614,-0.04007977992296219
1783081115907877600,6.857877685546875,9.827920913696289,0.0729810893535614,-0.03529413416981697
1783081115927709700,6.877709716796875,9.835099220275879,0.06340979784727097,-0.047258246690034866
1783081115947729400,6.8977294921875,9.832706451416016,0.0729810893535614,-0.05922235921025276
1783081115967388000,6.917387939453125,9.827920913696289,0.08015955984592438,-0.04486542567610741
1783081115987257900,6.9372578125,9.842277526855469,0.0729810893535614,-0.052043892443180084
1783081116007277600,6.957277587890625,9.832706451416016,0.07776673883199692,-0.04486542567610741
1783081116026955500,6.97695556640625,9.827920913696289,0.06340979784727097,-0.052043892443180084
1783081116046994400,6.996994384765625,9.847063064575195,0.06580262631177902,-0.052043892443180084
1783081116066822400,7.016822509765625,9.825528144836426,0.0729810893535614,-0.04007977992296219
1783081116086481200,7.036481201171875,9.808777809143066,0.07058826833963394,-0.04486542567610741
1783081116106332000,7.056331787109375,9.839884757995605,0.06580262631177902,-0.03768695518374443
1783081116126201600,7.07620166015625,9.827920913696289,0.06580262631177902,-0.04486542567610741
1783081116146240500,7.096240478515625,9.830313682556152,0.07776673883199692,-0.03768695518374443
1783081116166068200,7.116068115234375,9.832706451416016,0.08015955984592438,-0.04486542567610741
1783081116185727000,7.13572705078125,9.835099220275879,0.08015955984592438,-0.052043892443180084
1783081116205577500,7.155577392578125,9.825528144836426,0.06580262631177902,-0.049651071429252625
1783081116225447400,7.175447509765625,9.830313682556152,0.07776673883199692,-0.054436713457107544
1783081116245466600,7.195466552734375,9.837491989135742,0.07058826833963394,-0.04247260093688965
1783081116265144600,7.21514453125,9.815957069396973,0.0729810893535614,-0.04486542567610741
1783081116285164300,7.235164306640625,9.81356430053711,0.07776673883199692,-0.04486542567610741
1783081116304822500,7.254822509765625,9.823135375976562,0.061016976833343506,-0.0568295381963253
1783081116324692200,7.274692138671875,9.842277526855469,0.07537391036748886,-0.047258246690034866
1783081116344712000,7.2947119140625,9.827920913696289,0.08015955984592438,-0.047258246690034866
1783081116364370200,7.3143701171875,9.815957069396973,0.0729810893535614,-0.047258246690034866
1783081116384220200,7.33422021484375,9.825528144836426,0.07537391036748886,-0.04007977992296219
1783081116424113400,7.374113525390625,9.839884757995605,0.08015955984592438,-0.04486542567610741
1783081116443770000,7.39377001953125,9.827920913696289,0.06580262631177902,-0.0568295381963253
1783081116463811600,7.4138115234375,9.835099220275879,0.06819544732570648,-0.04247260093688965
1783081116483660800,7.433660888671875,9.823135375976562,0.07776673883199692,-0.052043892443180084
1783081116503356000,7.45335595703125,9.835099220275879,0.07776673883199692,-0.04247260093688965
1783081116523204900,7.473204833984375,9.830313682556152,0.06580262631177902,-0.047258246690034866
1783081116543015200,7.49301513671875,9.825528144836426,0.07058826833963394,-0.04007977992296219
1783081116563056600,7.513056640625,9.830313682556152,0.05383851006627083,-0.03529413416981697
1783081116582713300,7.53271337890625,9.827920913696289,0.06580262631177902,-0.04007977992296219
1783081116602562300,7.552562255859375,9.830313682556152,0.07537391036748886,-0.0568295381963253
1783081116622411300,7.572411376953125,9.825528144836426,0.07058826833963394,-0.03768695518374443
1783081116642260000,7.592260009765625,9.830313682556152,0.0729810893535614,-0.047258246690034866
1783081116662301700,7.6123017578125,9.835099220275879,0.0729810893535614,-0.047258246690034866
1783081116681958400,7.63195849609375,9.837491989135742,0.07058826833963394,-0.030508488416671753
1783081116701999900,7.651999755859375,9.823135375976562,0.08015955984592438,-0.04247260093688965
1783081116721656600,7.671656494140625,9.830313682556152,0.06580262631177902,-0.04007977992296219
1783081116741505500,7.691505615234375,9.825528144836426,0.05623133108019829,-0.04486542567610741
1783081116761547000,7.711547119140625,9.837491989135742,0.07776673883199692,-0.03768695518374443
1783081116781396200,7.731396240234375,9.8207426071167,0.0729810893535614,-0.049651071429252625
1783081116801053000,7.751052978515625,9.823135375976562,0.07537391036748886,-0.049651071429252625
1783081116820901600,7.770901611328125,9.839884757995605,0.0849452018737793,-0.049651071429252625
1783081116840789000,7.7907890625,9.8207426071167,0.061016976833343506,-0.04247260093688965
1783081116860792000,7.8107919921875,9.837491989135742,0.061016976833343506,-0.030508488416671753
1783081116880641500,7.8306416015625,9.818349838256836,0.07776673883199692,-0.049651071429252625
1783081116900336600,7.850336669921875,9.823135375976562,0.09451649338006973,-0.06640082597732544
