time,seconds_elapsed,z,y,x
1783081109154432000,0.104431884765625,0.0007989477599039674,0.0033289489801973104,-0.002663159044459462
1783081109194140000,0.144139892578125,0.0007989477599039674,0.0011984215816482902,-0.0037284228019416332
1783081109213989000,0.163989013671875,0.0007989477599039674,0.0022636852227151394,-0.0037284228019416332
1783081109233838000,0.183838134765625,0.0007989477599039674,0.0022636852227151394,-0.002663159044459462
1783081109253687000,0.20368701171875,0.0007989477599039674,0.0033289489801973104,-0.0037284228019416332
1783081109273536300,0.223536376953125,0.0007989477599039674,0.0022636852227151394,-0.002663159044459462
1783081109293385500,0.243385498046875,0.0007989477599039674,0.0022636852227151394,-0.002663159044459462
1783081109313234400,0.263234375,-0.0002663159102667123,0.0022636852227151394,-0.0037284228019416332
1783081109333083400,0.28308349609375,-0.0002663159102667123,0.0011984215816482902,-0.0037284228019416332
1783081109352932600,0.3029326171875,-0.0002663159102667123,0.0011984215816482902,-0.002663159044459462
1783081109372781600,0.322781494140625,-0.0002663159102667123,0.0033289489801973104,-0.002663159044459462
1783081109392630500,0.342630615234375,-0.0002663159102667123,0.0022636852227151394,-0.0037284228019416332
1783081109412479700,0.362479736328125,0.0007989477599039674,0.0011984215816482902,-0.002663159044459462
1783081109432328700,0.38232861328125,0.0007989477599039674,0.0022636852227151394,-0.002663159044459462
1783081109452177700,0.402177734375,0.0007989477599039674,0.0022636852227151394,-0.0037284228019416332
1783081109472027000,0.42202685546875,0.0007989477599039674,0.0022636852227151394,-0.0037284228019416332
1783081109491875800,0.441875732421875,0.0007989477599039674,0.0011984215816482902,-0.0037284228019416332
1783081109511724800,0.461724853515625,0.0007989477599039674,0.0022636852227151394,-0.004793686326593161
1783081109531497000,0.4814970703125,0.0007989477599039674,0.0022636852227151394,-0.0037284228019416332
1783081109551423000,0.501423095703125,0.0007989477599039674,0.0022636852227151394,-0.002663159044459462
1783081109571272000,0.52127197265625,0.0007989477599039674,0.0033289489801973104,-0.004793686326593161
1783081109591121000,0.541120849609375,0.0007989477599039674,0.0022636852227151394,-0.0037284228019416332
1783081109610970000,0.56097021484375,0.0007989477599039674,0.0022636852227151394,-0.002663159044459462
1783081109630819000,0.580819091796875,0.0007989477599039674,0.0022636852227151394,-0.002663159044459462
1783081109650668300,0.600668212890625,0.0007989477599039674,0.0022636852227151394,-0.0037284228019416332
1783081109670517200,0.620517333984375,-0.0002663159102667123,0.0011984215816482902,-0.002663159044459462
1783081109690366200,0.6403662109375,-0.0002663159102667123,0.0011984215816482902,-0.0037284228019416332
1783081109710215400,0.66021533203125,-0.0002663159102667123,0.0022636852227151394,-0.0037284228019416332
1783081109730064400,0.680064453125,0.0018642114009708166,0.0011984215816482902,-0.002663159044459462
1783081109749913300,0.699913330078125,0.0007989477599039674,0.0002663159102667123,-0.0037284228019416332
1783081109769762600,0.719762451171875,0.0007989477599039674,0.0011984215816482902,-0.002663159044459462
1783081109789611500,0.739611572265625,0.0007989477599039674,0.0022636852227151394,-0.002663159044459462
1783081109809460500,0.75946044921875,0.0007989477599039674,0.0011984215816482902,-0.0037284228019416332
1783081109829271000,0.77927099609375,0.0007989477599039674,0.0022636852227151394,-0.002663159044459462
1783081109848966100,0.798966064453125,-0.0002663159102667123,0.0011984215816482902,-0.002663159044459462
1783081109869007400,0.81900732421875,-0.0002663159102667123,0.0022636852227151394,-0.0037284228019416332
1783081109888818000,0.83881787109375,0.0018642114009708166,0.0022636852227151394,-0.0037284228019416332
1783081109908513000,0.858512939453125,0.0007989477599039674,0.0022636852227151394,-0.002663159044459462
1783081109928362000,0.878362060546875,0.0007989477599039674,0.0033289489801973104,-0.002663159044459462
1783081109948210700,0.898210693359375,0.0018642114009708166,0.0022636852227151394,-0.002663159044459462
1783081109968252200,0.918252197265625,0.0007989477599039674,0.0022636852227151394,-0.002663159044459462
1783081109988101400,0.938101318359375,0.0007989477599039674,0.0022636852227151394,-0.0037284228019416332
1783081110007758000,0.957758056640625,0.0007989477599039674,0.0022636852227151394,-0.002663159044459462
1783081110027607000,0.97760693359375,0.0018642114009708166,0.0022636852227151394,-0.002663159044459462
1783081110047456000,0.9974560546875,0.0007989477599039674,0.0011984215816482902,-0.002663159044459462
1783081110067497200,1.017497314453125,0.0007989477599039674,0.0022636852227151394,-0.0037284228019416332
1783081110087154000,1.03715380859375,0.0007989477599039674,0.0022636852227151394,-0.0037284228019416332
1783081110107003000,1.0570029296875,0.0007989477599039674,0.0011984215816482902,-0.0037284228019416332
1783081110127044400,1.07704443359375,-0.0002663159102667123,0.0011984215816482902,-0.0037284228019416332
1783081110146701000,1.096701171875,-0.0002663159102667123,0.0022636852227151394,-0.002663159044459462
1783081110166742500,1.116742431640625,0.0018642114009708166,0.0011984215816482902,-0.002663159044459462
1783081110186399200,1.136399169921875,0.0007989477599039674,0.0022636852227151394,-0.0037284228019416332
1783081110206286600,1.15628662109375,-0.0002663159102667123,0.0033289489801973104,-0.0037284228019416332
1783081110226135600,1.176135498046875,0.0018642114009708166,0.0022636852227151394,-0.002663159044459462
1783081110245984500,1.195984619140625,0.0007989477599039674,0.0022636852227151394,-0.002663159044459462
1783081110265987600,1.215987548828125,0.0007989477599039674,0.0011984215816482902,-0.002663159044459462
1783081110285683000,1.235682861328125,0.0007989477599039674,0.0022636852227151394,-0.0037284228019416332
1783081110305493200,1.2554931640625,0.0007989477599039674,0.0022636852227151394,-0.002663159044459462
1783081110325342200,1.27534228515625,0.0007989477599039674,0.0022636852227151394,-0.0037284228019416332
1783081110345191200,1.295191162109375,0.0007989477599039674,0.0022636852227151394,-0.0037284228019416332
1783081110365233000,1.31523291015625,0.0007989477599039674,0.0033289489801973104,-0.002663159044459462
1783081110384889300,1.334889404296875,-0.0002663159102667123,0.0011984215816482902,-0.0037284228019416332
1783081110404931000,1.35493115234375,0.0007989477599039674,0.0022636852227151394,-0.0037284228019416332
1783081110424587800,1.374587890625,0.0007989477599039674,0.0033289489801973104,-0.002663159044459462
1783081110444629200,1.394629150390625,0.0007989477599039674,0.0022636852227151394,-0.0037284228019416332
1783081110464478500,1.414478515625,0.0018642114009708166,0.0022636852227151394,-0.0037284228019416332
1783081110484135000,1.434135009765625,0.0018642114009708166,0.0022636852227151394,-0.002663159044459462
1783081110503983900,1.45398388671875,0.0007989477599039674,0.0033289489801973104,-0.002663159044459462
1783081110523832800,1.473832763671875,-0.0002663159102667123,0.0022636852227151394,-0.0037284228019416332
1783081110543874300,1.493874267578125,0.0007989477599039674,0.0022636852227151394,-0.0037284228019416332
1783081110563531000,1.513531005859375,0.0007989477599039674,0.0011984215816482902,-0.002663159044459462
1783081110583380000,1.5333798828125,0.0007989477599039674,0.0022636852227151394,-0.0037284228019416332
1783081110603229000,1.55322900390625,0.0007989477599039674,0.0033289489801973104,-0.0037284228019416332
1783081110623078000,1.573077880859375,-0.0002663159102667123,0.0022636852227151394,-0.0037284228019416332
1783081110643119400,1.593119384765625,-0.0002663159102667123,0.0011984215816482902,-0.0037284228019416332
1783081110662776000,1.612776123046875,0.0007989477599039674,0.0011984215816482902,-0.002663159044459462
1783081110682740500,1.632740478515625,0.0007989477599039674,0.0022636852227151394,-0.002663159044459462
1783081110702474200,1.65247412109375,0.0007989477599039674,0.0022636852227151394,-0.0037284228019416332
1783081110722515700,1.672515625,0.0007989477599039674,0.0022636852227151394,-0.0037284228019416332
1783081110742365000,1.692364990234375,0.0007989477599039674,0.0022636852227151394,-0.0037284228019416332
1783081110762021600,1.712021728515625,0.0007989477599039674,0.0011984215816482902,-0.004793686326593161
1783081110781870600,1.73187060546875,0.0007989477599039674,0.0022636852227151394,-0.0037284228019416332
1783081110801719300,1.75171923828125,0.0007989477599039674,0.0022636852227151394,-0.002663159044459462
1783081110821760800,1.7717607421875,0.0018642114009708166,0.0022636852227151394,-0.0037284228019416332
1783081110841610000,1.79160986328125,0.0018642114009708166,0.0022636852227151394,-0.0037284228019416332
1783081110861266700,1.8112666015625,0.0007989477599039674,0.0033289489801973104,-0.0037284228019416332
1783081110881115600,1.83111572265625,0.0007989477599039674,0.0022636852227151394,-0.002663159044459462
1783081110900964600,1.850964599609375,0.0007989477599039674,0.0011984215816482902,-0.002663159044459462
1783081110921006000,1.871006103515625,-0.0002663159102667123,0.0022636852227151394,-0.002663159044459462
1783081110940855300,1.890855224609375,0.0007989477599039674,0.0022636852227151394,-0.002663159044459462
1783081110960704500,1.91070458984375,0.0007989477599039674,0.0033289489801973104,-0.002663159044459462
1783081110980361200,1.930361328125,0.0007989477599039674,0.0033289489801973104,-0.002663159044459462
1783081111000210000,1.9502099609375,0.0007989477599039674,0.0022636852227151394,-0.002663159044459462
1783081111020251400,1.97025146484375,-0.0002663159102667123,0.0022636852227151394,-0.0037284228019416332
1783081111040100600,1.9901005859375,0.0007989477599039674,0.0022636852227151394,-0.002663159044459462
1783081111059757300,2.00975732421875,0.0007989477599039674,0.0022636852227151394,-0.002663159044459462
1783081111079606300,2.029606201171875,0.0007989477599039674,0.0022636852227151394,-0.002663159044459462
1783081111099647700,2.049647705078125,0.0007989477599039674,0.0022636852227151394,-0.002663159044459462
1783081111119496700,2.06949658203125,0.0007989477599039674,0.0022636852227151394,-0.0037284228019416332
1783081111139346000,2.089345947265625,0.0007989477599039674,0.0022636852227151394,-0.0037284228019416332
1783081111159002600,2.109002685546875,0.0007989477599039674,0.0022636852227151394,-0.002663159044459462
1783081111178851300,2.128851318359375,0.0007989477599039674,0.0033289489801973104,-0.002663159044459462
1783081111198700300,2.1487001953125,0.0007989477599039674,0.0022636852227151394,-0.002663159044459462
1783081111218741800,2.16874169921875,0.0007989477599039674,0.0011984215816482902,-0.002663159044459462
1783081111238591000,2.188591064453125,-0.0002663159102667123,0.0022636852227151394,-0.0037284228019416332
1783081111258286000,2.2082861328125,-0.0002663159102667123,0.0022636852227151394,-0.004793686326593161
1783081111278135000,2.228135009765625,0.0007989477599039674,0.0022636852227151394,-0.0037284228019416332
1783081111297984000,2.24798388671875,0.0007989477599039674,0.0033289489801973104,-0.0037284228019416332
1783081111317987000,2.267987060546875,0.0007989477599039674,0.0022636852227151394,-0.0037284228019416332
1783081111337643800,2.287643798828125,0.0007989477599039674,0.0022636852227151394,-0.002663159044459462
1783081111357492700,2.30749267578125,-0.0002663159102667123,0.0022636852227151394,-0.002663159044459462
1783081111377341700,2.327341796875,0.0007989477599039674,0.0011984215816482902,-0.002663159044459462
1783081111397190400,2.3471904296875,-0.0002663159102667123,0.0033289489801973104,-0.002663159044459462
1783081111417232100,2.367232177734375,0.0007989477599039674,0.0033289489801973104,-0.002663159044459462
1783081111436888600,2.386888671875,0.0007989477599039674,0.0022636852227151394,-0.0037284228019416332
1783081111456930300,2.406930419921875,0.0007989477599039674,0.0022636852227151394,-0.0037284228019416332
1783081111476587000,2.4265869140625,-0.0002663159102667123,0.0011984215816482902,-0.002663159044459462
1783081111496436000,2.44643603515625,-0.0002663159102667123,0.0022636852227151394,-0.002663159044459462
1783081111516477400,2.4664775390625,0.0007989477599039674,0.0022636852227151394,-0.0037284228019416332
1783081111536326700,2.48632666015625,-0.0002663159102667123,0.0033289489801973104,-0.004793686326593161
1783081111556176000,2.50617578125,0.0007989477599039674,0.0022636852227151394,-0.0037284228019416332
1783081111575832600,2.52583251953125,-0.0002663159102667123,0.0022636852227151394,-0.0037284228019416332
1783081111595873800,2.545873779296875,0.0007989477599039674,0.0022636852227151394,-0.0037284228019416332
1783081111615723000,2.565722900390625,0.0007989477599039674,0.0011984215816482902,-0.0037284228019416332
1783081111635572000,2.585572021484375,-0.0002663159102667123,0.0022636852227151394,-0.0037284228019416332
1783081111655421200,2.605421142578125,0.0018642114009708166,0.0033289489801973104,-0.002663159044459462
1783081111675078000,2.625077880859375,0.0007989477599039674,0.0022636852227151394,-0.002663159044459462
1783081111695119000,2.645119140625,0.0007989477599039674,0.0022636852227151394,-0.002663159044459462
1783081111714968300,2.66496826171875,-0.0002663159102667123,0.0022636852227151394,-0.0037284228019416332
1783081111734817300,2.6848173828125,-0.0002663159102667123,0.0022636852227151394,-0.0037284228019416332
1783081111754666500,2.70466650390625,0.0018642114009708166,0.0022636852227151394,-0.002663159044459462
1783081111774515500,2.724515380859375,0.0007989477599039674,0.0022636852227151394,-0.0037284228019416332
1783081111794364700,2.74436474609375,0.0007989477599039674,0.0011984215816482902,-0.0037284228019416332
1783081111814213600,2.764213623046875,0.0007989477599039674,0.0033289489801973104,-0.0037284228019416332
1783081111834062800,2.784062744140625,0.0007989477599039674,0.0043942127376794815,-0.002663159044459462
1783081111853911800,2.803911865234375,-0.0002663159102667123,0.0033289489801973104,-0.002663159044459462
1783081111873761000,2.823760986328125,0.0007989477599039674,0.0022636852227151394,-0.002663159044459462
1783081111893610000,2.84360986328125,0.0007989477599039674,0.0022636852227151394,-0.002663159044459462
1783081111913459000,2.863458984375,-0.0002663159102667123,0.0022636852227151394,-0.002663159044459462
1783081111933308200,2.88330810546875,-0.0002663159102667123,0.0011984215816482902,-0.0037284228019416332
1783081111953157000,2.9031572265625,0.0018642114009708166,0.0022636852227151394,-0.002663159044459462
1783081111973006000,2.923006103515625,0.0018642114009708166,0.0022636852227151394,-0.0037284228019416332
1783081111992855300,2.942855224609375,0.0007989477599039674,0.0011984215816482902,-0.0037284228019416332
1783081112012704300,2.962704345703125,0.0007989477599039674,0.0022636852227151394,-0.0037284228019416332
1783081112032553200,2.98255322265625,-0.0002663159102667123,0.0022636852227151394,-0.002663159044459462
1783081112052402200,3.002402099609375,-0.0002663159102667123,0.0033289489801973104,-0.002663159044459462
1783081112072251400,3.02225146484375,-0.0002663159102667123,0.0033289489801973104,-0.0037284228019416332
1783081112092100400,3.042100341796875,-0.0002663159102667123,0.0022636852227151394,-0.0037284228019416332
1783081112111949600,3.061949462890625,0.0007989477599039674,0.0022636852227151394,-0.0037284228019416332
1783081112131798500,3.081798583984375,0.0007989477599039674,0.0022636852227151394,-0.0037284228019416332
1783081112151647500,3.1016474609375,0.0007989477599039674,0.0022636852227151394,-0.0037284228019416332
1783081112171496700,3.12149658203125,0.0007989477599039674,0.0022636852227151394,-0.0037284228019416332
1783081112191230200,3.141230224609375,-0.0002663159102667123,0.0022636852227151394,-0.0037284228019416332
1783081112211194600,3.161194580078125,-0.0002663159102667123,0.0022636852227151394,-0.0037284228019416332
1783081112231043600,3.181043701171875,0.0018642114009708166,0.0033289489801973104,-0.002663159044459462
1783081112250892800,3.200892822265625,0.0007989477599039674,0.0022636852227151394,-0.002663159044459462
1783081112270741800,3.22074169921875,-0.0002663159102667123,0.0022636852227151394,-0.002663159044459462
1783081112290590700,3.2405908203125,0.0007989477599039674,0.0022636852227151394,-0.002663159044459462
1783081112310440000,3.26043994140625,0.0007989477599039674,0.0022636852227151394,-0.002663159044459462
1783081112330289000,3.280288818359375,0.0007989477599039674,0.0022636852227151394,-0.0037284228019416332
1783081112350137900,3.300137939453125,0.0007989477599039674,0.0022636852227151394,-0.0037284228019416332
1783081112369987000,3.319987060546875,-0.0002663159102667123,0.0011984215816482902,-0.0037284228019416332
1783081112389836000,3.3398359375,-0.0002663159102667123,0.0022636852227151394,-0.002663159044459462
1783081112409685000,3.35968505859375,0.0007989477599039674,0.0011984215816482902,-0.002663159044459462
1783081112429534200,3.3795341796875,0.0007989477599039674,0.0022636852227151394,-0.002663159044459462
1783081112449383200,3.399383056640625,0.0007989477599039674,0.0022636852227151394,-0.0037284228019416332
1783081112469232000,3.419232177734375,0.0007989477599039674,0.0011984215816482902,-0.002663159044459462
1783081112489081300,3.439081298828125,-0.0002663159102667123,0.0011984215816482902,-0.002663159044459462
1783081112508930300,3.458930419921875,0.0007989477599039674,0.0022636852227151394,-0.0037284228019416332
1783081112528587000,3.4785869140625,0.0007989477599039674,0.0011984215816482902,-0.002663159044459462
1783081112548435700,3.498435791015625,0.0007989477599039674,0.0011984215816482902,-0.0037284228019416332
1783081112568477200,3.518477294921875,-0.0002663159102667123,0.0022636852227151394,-0.0037284228019416332
1783081112588133600,3.538133544921875,0.0007989477599039674,0.0022636852227151394,-0.002663159044459462
1783081112607982600,3.557982666015625,0.0007989477599039674,0.0022636852227151394,-0.002663159044459462
1783081112627831600,3.57783154296875,-0.0002663159102667123,0.0022636852227151394,-0.002663159044459462
1783081112647680300,3.59768017578125,-0.0002663159102667123,0.0022636852227151394,-0.0037284228019416332
1783081112667722000,3.617721923828125,0.0007989477599039674,0.0022636852227151394,-0.0037284228019416332
1783081112687378400,3.63737841796875,0.0007989477599039674,0.0011984215816482902,-0.0037284228019416332
1783081112707227400,3.657227294921875,0.0007989477599039674,0.0011984215816482902,-0.002663159044459462
1783081112727076400,3.677076416015625,0.0007989477599039674,0.0022636852227151394,-0.0037284228019416332
1783081112746925300,3.69692529296875,0.0007989477599039674,0.0022636852227151394,-0.0037284228019416332
1783081112766967000,3.716967041015625,-0.0002663159102667123,0.0033289489801973104,-0.0037284228019416332
1783081112786816300,3.736816162109375,0.0007989477599039674,0.0033289489801973104,-0.0037284228019416332
1783081112806472700,3.75647265625,0.0007989477599039674,0.0022636852227151394,-0.0037284228019416332
1783081112826321700,3.77632177734375,0.0007989477599039674,0.0022636852227151394,-0.002663159044459462
1783081112846170600,3.796170654296875,-0.0002663159102667123,0.0022636852227151394,-0.002663159044459462
1783081112866212400,3.81621240234375,0.0007989477599039674,0.0022636852227151394,-0.0037284228019416332
1783081112885868800,3.835868896484375,0.0007989477599039674,0.0022636852227151394,-0.002663159044459462
1783081112905717800,3.8557177734375,0.0007989477599039674,0.0033289489801973104,-0.002663159044459462
1783081112925759500,3.875759521484375,0.0007989477599039674,0.0022636852227151394,-0.002663159044459462
1783081112945416000,3.895416015625,0.0007989477599039674,0.0011984215816482902,-0.002663159044459462
1783081112965457400,3.91545751953125,0.0007989477599039674,0.0022636852227151394,-0.0037284228019416332
1783081112985114000,3.935114013671875,0.0007989477599039674,0.0022636852227151394,-0.0037284228019416332
1783081113004963000,3.954963134765625,0.0007989477599039674,0.0011984215816482902,-0.0037284228019416332
1783081113024812000,3.97481201171875,-0.0002663159102667123,0.0011984215816482902,-0.0037284228019416332
1783081113044661000,3.994660888671875,0.0007989477599039674,0.0033289489801973104,-0.0037284228019416332
1783081113064702500,4.014702392578125,0.0018642114009708166,0.0002663159102667123,-0.0037284228019416332
1783081113084359200,4.034359130859375,0.0007989477599039674,0.0011984215816482902,-0.0037284228019416332
1783081113104208100,4.0542080078125,-0.0002663159102667123,0.0022636852227151394,-0.0037284228019416332
1783081113124057000,4.07405712890625,-0.0002663159102667123,0.0022636852227151394,-0.0037284228019416332
1783081113144098800,4.094098876953125,0.0007989477599039674,0.0033289489801973104,-0.002663159044459462
1783081113163948000,4.113947998046875,0.0007989477599039674,0.0022636852227151394,-0.0037284228019416332
1783081113183604700,4.133604736328125,0.0007989477599039674,0.0022636852227151394,-0.0037284228019416332
1783081113203646200,4.153646240234375,0.0007989477599039674,0.0022636852227151394,-0.002663159044459462
1783081113223303000,4.173302978515625,0.0007989477599039674,0.0022636852227151394,-0.002663159044459462
1783081113243344100,4.19334423828125,-0.0002663159102667123,0.0022636852227151394,-0.0037284228019416332
1783081113263000800,4.213000732421875,0.0007989477599039674,0.0022636852227151394,-0.004793686326593161
1783081113282849800,4.232849853515625,-0.0002663159102667123,0.0033289489801973104,-0.0037284228019416332
1783081113302891300,4.252891357421875,0.0007989477599039674,0.0022636852227151394,-0.0037284228019416332
1783081113322740500,4.272740478515625,0.0007989477599039674,0.0022636852227151394,-0.0037284228019416332
1783081113342589700,4.292589599609375,0.0007989477599039674,0.0033289489801973104,-0.0037284228019416332
1783081113362284800,4.312284912109375,0.0007989477599039674,0.0022636852227151394,-0.0037284228019416332
1783081113382133800,4.3321337890625,0.0007989477599039674,0.0022636852227151394,-0.002663159044459462
1783081113401944000,4.351944091796875,-0.0002663159102667123,0.0022636852227151394,-0.002663159044459462
1783081113421985800,4.37198583984375,0.0007989477599039674,0.0033289489801973104,-0.0037284228019416332
1783081113441834800,4.391834716796875,0.0007989477599039674,0.0022636852227151394,-0.0037284228019416332
1783081113461491500,4.411491455078125,0.0007989477599039674,0.0022636852227151394,-0.0037284228019416332
1783081113481533000,4.431532958984375,-0.0002663159102667123,0.0022636852227151394,-0.004793686326593161
1783081113501189400,4.451189453125,-0.0002663159102667123,0.0022636852227151394,-0.0037284228019416332
1783081113521230800,4.47123095703125,0.0007989477599039674,0.0022636852227151394,-0.002663159044459462
1783081113541080000,4.491080078125,0.0007989477599039674,0.0022636852227151394,-0.002663159044459462
1783081113560736800,4.51073681640625,0.0007989477599039674,0.0022636852227151394,-0.0037284228019416332
1783081113580585700,4.530585693359375,0.0007989477599039674,0.0022636852227151394,-0.0037284228019416332
1783081113600434400,4.550434326171875,0.0007989477599039674,0.0033289489801973104,-0.0037284228019416332
1783081113620476000,4.570475830078125,0.0007989477599039674,0.0022636852227151394,-0.002663159044459462
1783081113640325000,4.5903251953125,0.0007989477599039674,0.0022636852227151394,-0.002663159044459462
1783081113659981800,4.60998193359375,-0.0002663159102667123,0.0022636852227151394,-0.0037284228019416332
1783081113679830800,4.629830810546875,0.0018642114009708166,0.0022636852227151394,-0.004793686326593161
1783081113699679700,4.6496796875,-0.0002663159102667123,0.0011984215816482902,-0.0037284228019416332
1783081113719682600,4.6696826171875,-0.0002663159102667123,0.0011984215816482902,-0.0037284228019416332
1783081113739570400,4.6895703125,0.0007989477599039674,0.0022636852227151394,-0.0037284228019416332
1783081113759227000,4.709226806640625,0.0007989477599039674,0.0022636852227151394,-0.004793686326593161
1783081113779075800,4.729075927734375,-0.0002663159102667123,0.0022636852227151394,-0.0037284228019416332
1783081113798924800,4.7489248046875,0.0007989477599039674,0.0011984215816482902,-0.0037284228019416332
1783081113818966300,4.76896630859375,0.0007989477599039674,0.0022636852227151394,-0.002663159044459462
1783081113838815500,4.7888154296875,0.0007989477599039674,0.0022636852227151394,-0.0037284228019416332
1783081113858472200,4.80847216796875,0.0007989477599039674,0.0022636852227151394,-0.0037284228019416332
1783081113878321200,4.828321044921875,0.0007989477599039674,0.0033289489801973104,-0.0037284228019416332
1783081113898170000,4.848170166015625,0.0007989477599039674,0.0022636852227151394,-0.002663159044459462
1783081113918211600,4.868211669921875,0.0007989477599039674,0.0011984215816482902,-0.0037284228019416332
1783081113937868300,4.887868408203125,0.0007989477599039674,0.0011984215816482902,-0.0037284228019416332
1783081113957717200,4.90771728515625,0.0007989477599039674,0.0022636852227151394,-0.002663159044459462
1783081113977566200,4.927566162109375,0.0018642114009708166,0.0033289489801973104,-0.002663159044459462
1783081113997415000,4.947414794921875,0.0007989477599039674,0.0033289489801973104,-0.002663159044459462
1783081114017456600,4.96745654296875,-0.0002663159102667123,0.0011984215816482902,-0.0037284228019416332
1783081114037113300,4.98711328125,0.0007989477599039674,0.0011984215816482902,-0.0037284228019416332
1783081114056962300,5.00696240234375,-0.0002663159102667123,0.0022636852227151394,-0.002663159044459462
1783081114076811300,5.026811279296875,0.0007989477599039674,0.0033289489801973104,-0.002663159044459462
1783081114096853000,5.04685302734375,0.0007989477599039674,0.0033289489801973104,-0.002663159044459462
1783081114116702200,5.0667021484375,0.0018642114009708166,0.0011984215816482902,-0.0037284228019416332
1783081114136359000,5.08635888671875,-0.0002663159102667123,0.0011984215816482902,-0.0037284228019416332
1783081114156400400,5.106400390625,0.0007989477599039674,0.0033289489801973104,-0.0037284228019416332
1783081114176056800,5.126056884765625,0.0007989477599039674,0.0033289489801973104,-0.002663159044459462
1783081114195905800,5.14590576171875,-0.0002663159102667123,0.0022636852227151394,-0.0037284228019416332
1783081114215947300,5.165947265625,-0.0002663159102667123,0.0011984215816482902,-0.0037284228019416332
1783081114235796500,5.18579638671875,-0.0002663159102667123,0.0022636852227151394,-0.002663159044459462
1783081114255645700,5.205645751953125,0.0007989477599039674,0.0022636852227151394,-0.002663159044459462
1783081114275495000,5.225494873046875,0.0007989477599039674,0.0033289489801973104,-0.0037284228019416332
1783081114295151600,5.245151611328125,0.0007989477599039674,0.0022636852227151394,-0.002663159044459462
1783081114315192800,5.26519287109375,0.0007989477599039674,0.0022636852227151394,-0.002663159044459462
1783081114335042000,5.2850419921875,-0.0002663159102667123,0.0022636852227151394,-0.0037284228019416332
1783081114354891300,5.304891357421875,0.0007989477599039674,0.0022636852227151394,-0.0037284228019416332
1783081114374740200,5.324740234375,0.0007989477599039674,0.0022636852227151394,-0.002663159044459462
1783081114394589400,5.34458935546875,-0.0002663159102667123,0.0022636852227151394,-0.002663159044459462
1783081114414438400,5.3644384765625,0.0007989477599039674,0.0022636852227151394,-0.0037284228019416332
1783081114434287600,5.38428759765625,0.0007989477599039674,0.0022636852227151394,-0.002663159044459462
1783081114454136600,5.404136474609375,0.0007989477599039674,0.0011984215816482902,-0.0037284228019416332
1783081114473985500,5.423985595703125,0.0007989477599039674,0.0011984215816482902,-0.0037284228019416332
1783081114493834800,5.443834716796875,0.0007989477599039674,0.0022636852227151394,-0.0037284228019416332
1783081114513683700,5.46368359375,0.0018642114009708166,0.0022636852227151394,-0.0037284228019416332
1783081114533533000,5.483532958984375,0.0018642114009708166,0.0033289489801973104,-0.002663159044459462
1783081114553382000,5.5033818359375,-0.0002663159102667123,0.0022636852227151394,-0.0037284228019416332
1783081114573231000,5.523231201171875,-0.0002663159102667123,0.0011984215816482902,-0.002663159044459462
1783081114593080000,5.543080078125,0.0007989477599039674,0.0022636852227151394,-0.002663159044459462
1783081114612929000,5.562928955078125,-0.0002663159102667123,0.0033289489801973104,-0.002663159044459462
1783081114632778000,5.582778076171875,0.0007989477599039674,0.0011984215816482902,-0.002663159044459462
1783081114652627200,5.602627197265625,0.0007989477599039674,0.0011984215816482902,-0.0037284228019416332
1783081114672476200,5.62247607421875,0.0007989477599039674,0.0022636852227151394,-0.0037284228019416332
1783081114692325000,5.6423251953125,0.0007989477599039674,0.0022636852227151394,-0.002663159044459462
1783081114712174300,5.66217431640625,0.0007989477599039674,0.0033289489801973104,-0.0037284228019416332
1783081114732023300,5.682023193359375,-0.0002663159102667123,0.0022636852227151394,-0.0037284228019416332
1783081114751872500,5.70187255859375,0.0007989477599039674,0.0022636852227151394,-0.0037284228019416332
1783081114771721500,5.721721435546875,0.0007989477599039674,0.0022636852227151394,-0.0037284228019416332
1783081114791570400,5.7415703125,0.0007989477599039674,0.0022636852227151394,-0.002663159044459462
1783081114811419600,5.761419677734375,-0.0002663159102667123,0.0011984215816482902,-0.0037284228019416332
1783081114831268600,5.7812685546875,0.0007989477599039674,0.0033289489801973104,-0.002663159044459462
1783081114851117600,5.80111767578125,0.0007989477599039674,0.0022636852227151394,-0.004793686326593161
1783081114870966800,5.820966796875,-0.0002663159102667123,0.0011984215816482902,-0.002663159044459462
1783081114890815700,5.840815673828125,0.0007989477599039674,0.0022636852227151394,-0.0037284228019416332
1783081114910664700,5.860664794921875,-0.0002663159102667123,0.0022636852227151394,-0.0037284228019416332
1783081114930514000,5.880513916015625,0.0007989477599039674,0.0022636852227151394,-0.002663159044459462
1783081114950363000,5.90036279296875,0.0007989477599039674,0.0022636852227151394,-0.0037284228019416332
1783081114970211800,5.9202119140625,0.0007989477599039674,0.0033289489801973104,-0.002663159044459462
1783081114990061000,5.94006103515625,0.0007989477599039674,0.0022636852227151394,-0.0015978955198079348
1783081115009910000,5.959909912109375,0.0007989477599039674,0.0022636852227151394,-0.0037284228019416332
1783081115029759000,5.979759033203125,-0.0002663159102667123,0.0011984215816482902,-0.0037284228019416332
1783081115049608200,5.999608154296875,-0.0002663159102667123,0.0011984215816482902,-0.0037284228019416332
1783081115069457200,6.01945703125,-0.0002663159102667123,0.0022636852227151394,-0.0037284228019416332
1783081115089306000,6.03930615234375,-0.0002663159102667123,0.0011984215816482902,-0.0037284228019416332
1783081115108962800,6.058962890625,0.0007989477599039674,0.0022636852227151394,-0.0037284228019416332
1783081115128811500,6.0788115234375,0.0007989477599039674,0.0022636852227151394,-0.0037284228019416332
1783081115148660500,6.098660400390625,0.0007989477599039674,0.0011984215816482902,-0.002663159044459462
1783081115168701700,6.11870166015625,0.0007989477599039674,0.0011984215816482902,-0.0037284228019416332
1783081115188358400,6.1383583984375,0.0007989477599039674,0.0022636852227151394,-0.0037284228019416332
1783081115208207400,6.158207275390625,0.0007989477599039674,0.0022636852227151394,-0.002663159044459462
1783081115228056300,6.178056396484375,0.0007989477599039674,0.0022636852227151394,-0.002663159044459462
1783081115247905300,6.1979052734375,0.0007989477599039674,0.0033289489801973104,-0.0037284228019416332
1783081115267946800,6.21794677734375,-0.0002663159102667123,0.0022636852227151394,-0.0037284228019416332
1783081115287603500,6.237603515625,0.0007989477599039674,0.0022636852227151394,-0.002663159044459462
1783081115307645000,6.25764501953125,0.0007989477599039674,0.0033289489801973104,-0.002663159044459462
1783081115327301600,6.277301513671875,0.0007989477599039674,0.0033289489801973104,-0.002663159044459462
1783081115347150300,6.297150390625,0.0007989477599039674,0.0022636852227151394,-0.002663159044459462
1783081115367192000,6.317192138671875,-0.0002663159102667123,0.0022636852227151394,-0.0037284228019416332
1783081115386848800,6.336848876953125,-0.0002663159102667123,0.0011984215816482902,-0.0037284228019416332
1783081115406890000,6.356889892578125,0.0007989477599039674,0.0033289489801973104,-0.002663159044459462
1783081115426585000,6.376585205078125,0.0007989477599039674,0.0022636852227151394,-0.0037284228019416332
1783081115446434000,6.39643408203125,0.0007989477599039674,0.0022636852227151394,-0.0037284228019416332
1783081115466437400,6.416437255859375,-0.0002663159102667123,0.0022636852227151394,-0.0037284228019416332
1783081115486132500,6.436132568359375,-0.0002663159102667123,0.0022636852227151394,-0.0037284228019416332
1783081115505981200,6.455981201171875,-0.0002663159102667123,0.0033289489801973104,-0.002663159044459462
1783081115525792000,6.4757919921875,0.0007989477599039674,0.0022636852227151394,-0.0037284228019416332
1783081115545641000,6.495640869140625,0.0018642114009708166,0.0022636852227151394,-0.0037284228019416332
1783081115565682400,6.515682373046875,0.0007989477599039674,0.0022636852227151394,-0.0037284228019416332
1783081115585531600,6.53553173828125,0.0018642114009708166,0.0033289489801973104,-0.0037284228019416332
1783081115605188400,6.555188232421875,0.0007989477599039674,0.0022636852227151394,-0.0037284228019416332
1783081115625037300,6.575037353515625,-0.0002663159102667123,0.0022636852227151394,-0.0037284228019416332
1783081115645078500,6.59507861328125,0.0007989477599039674,0.0033289489801973104,-0.002663159044459462
1783081115664734500,6.614734375,0.0007989477599039674,0.0033289489801973104,-0.002663159044459462
1783081115704433000,6.654432861328125,0.0018642114009708166,0.0033289489801973104,-0.0037284228019416332
1783081115724474600,6.674474609375,0.0007989477599039674,0.0022636852227151394,-0.0037284228019416332
1783081115744323800,6.69432373046875,0.0007989477599039674,0.0022636852227151394,-0.0037284228019416332
1783081115764173000,6.714173095703125,0.0007989477599039674,0.0033289489801973104,-0.0037284228019416332
1783081115783829800,6.733829833984375,0.0007989477599039674,0.0033289489801973104,-0.0037284228019416332
1783081115803678700,6.7536787109375,0.0007989477599039674,0.0022636852227151394,-0.0037284228019416332
1783081115823720000,6.773719970703125,0.0007989477599039674,0.0022636852227151394,-0.004793686326593161
1783081115843569200,6.793569091796875,0.0007989477599039674,0.0022636852227151394,-0.004793686326593161
1783081115863418400,6.81341845703125,0.0007989477599039674,0.0022636852227151394,-0.0037284228019416332
1783081115883113500,6.833113525390625,0.0018642114009708166,0.0022636852227151394,-0.0037284228019416332
1783081115902962400,6.85296240234375,0.0007989477599039674,0.0022636852227151394,-0.0037284228019416332
1783081115922773000,6.87277294921875,0.0007989477599039674,0.0022636852227151394,-0.0037284228019416332
1783081115942814500,6.892814453125,-0.0002663159102667123,0.0022636852227151394,-0.002663159044459462
1783081115962471200,6.91247119140625,0.0018642114009708166,0.0022636852227151394,-0.0037284228019416332
1783081115982320000,6.932320068359375,0.0007989477599039674,0.0033289489801973104,-0.0037284228019416332
1783081116002361300,6.952361328125,0.0007989477599039674,0.0022636852227151394,-0.002663159044459462
1783081116022018000,6.97201806640625,0.0007989477599039674,0.0022636852227151394,-0.0037284228019416332
1783081116042059500,6.9920595703125,0.0007989477599039674,0.0033289489801973104,-0.0037284228019416332
1783081116061908700,7.01190869140625,0.0007989477599039674,0.0022636852227151394,-0.0037284228019416332
1783081116081565400,7.0315654296875,0.0007989477599039674,0.0022636852227151394,-0.004793686326593161
1783081116101414400,7.051414306640625,-0.0002663159102667123,0.0022636852227151394,-0.0037284228019416332
1783081116121263400,7.071263427734375,-0.0002663159102667123,0.0022636852227151394,-0.002663159044459462
1783081116141304800,7.091304931640625,0.0007989477599039674,0.0022636852227151394,-0.002663159044459462
1783081116161154000,7.111154052734375,0.0007989477599039674,0.0033289489801973104,-0.0037284228019416332
1783081116180810800,7.130810791015625,-0.0002663159102667123,0.0022636852227151394,-0.0037284228019416332
1783081116200659500,7.150659423828125,0.0007989477599039674,0.0022636852227151394,-0.0037284228019416332
1783081116220508400,7.17050830078125,-0.0002663159102667123,0.0022636852227151394,-0.0037284228019416332
1783081116240550000,7.1905498046875,0.0007989477599039674,0.0033289489801973104,-0.0037284228019416332
1783081116260206600,7.21020654296875,-0.0002663159102667123,0.0022636852227151394,-0.0037284228019416332
1783081116280248000,7.230248046875,0.0007989477599039674,0.0033289489801973104,-0.0037284228019416332
1783081116299904800,7.24990478515625,0.0007989477599039674,0.0022636852227151394,-0.002663159044459462
1783081116319753700,7.269753662109375,0.0007989477599039674,0.0022636852227151394,-0.002663159044459462
1783081116339795200,7.289795166015625,0.0007989477599039674,0.0011984215816482902,-0.0037284228019416332
1783081116359452000,7.309451904296875,0.0007989477599039674,0.0022636852227151394,-0.0037284228019416332
1783081116379300900,7.32930078125,0.0018642114009708166,0.0022636852227151394,-0.0037284228019416332
1783081116399149800,7.34914990234375,0.0007989477599039674,0.0011984215816482902,-0.0037284228019416332
1783081116419180000,7.369179931640625,0.0007989477599039674,0.0022636852227151394,-0.0037284228019416332
1783081116438857700,7.388857666015625,0.0018642114009708166,0.0022636852227151394,-0.0037284228019416332
1783081116458877200,7.408877197265625,0.0007989477599039674,0.0022636852227151394,-0.0037284228019416332
1783081116478728200,7.428728271484375,0.0007989477599039674,0.0033289489801973104,-0.004793686326593161
1783081116498440400,7.4484404296875,0.0007989477599039674,0.0033289489801973104,-0.002663159044459462
1783081116518287600,7.46828759765625,0.0007989477599039674,0.0022636852227151394,-0.0037284228019416332
1783081116538100500,7.4881005859375,0.0007989477599039674,0.0033289489801973104,-0.002663159044459462
1783081116558120200,7.5081201171875,0.0007989477599039674,0.0033289489801973104,-0.002663159044459462
1783081116577798700,7.527798583984375,-0.0002663159102667123,0.0022636852227151394,-0.0037284228019416332
1783081116597645600,7.5476455078125,-0.0002663159102667123,0.0022636852227151394,-0.004793686326593161
1783081116617493000,7.567492919921875,-0.0002663159102667123,0.0022636852227151394,-0.002663159044459462
1783081116637340400,7.58734033203125,0.0007989477599039674,0.0022636852227151394,-0.002663159044459462
1783081116657361700,7.607361572265625,0.0007989477599039674,0.0022636852227151394,-0.002663159044459462
1783081116677040400,7.627040283203125,0.0007989477599039674,0.0022636852227151394,-0.0037284228019416332
1783081116697061000,7.64706103515625,0.0007989477599039674,0.0011984215816482902,-0.0037284228019416332
1783081116716739800,7.66673974609375,0.0007989477599039674,0.0022636852227151394,-0.002663159044459462
1783081116736587300,7.686587158203125,0.0007989477599039674,0.0033289489801973104,-0.002663159044459462
1783081116756607700,7.706607666015625,0.0007989477599039674,0.0033289489801973104,-0.0037284228019416332
1783081116776460000,7.7264599609375,0.0007989477599039674,0.0022636852227151394,-0.0037284228019416332
1783081116796138200,7.74613818359375,0.0007989477599039674,0.0022636852227151394,-0.002663159044459462
1783081116815985200,7.765985107421875,-0.0002663159102667123,0.0022636852227151394,-0.002663159044459462
1783081116835867000,7.785866943359375,0.0007989477599039674,0.007590003311634064,-0.0005326318205334246
1783081116855854000,7.80585400390625,0.0007989477599039674,0.0033289489801973104,-0.0015978955198079348
1783081116875706000,7.8257060546875,0.0018642114009708166,0.0011984215816482902,-0.002663159044459462
1783081116895418600,7.845418701171875,0.0007989477599039674,0.0002663159102667123,-0.004793686326593161
