time,seconds_elapsed,z,y,x
1783080690773287000,0.136286865234375,4.965106964111328,2.8289146423339844,-1.984248161315918
1783080690793122600,0.15612255859375,2.317448616027832,1.7850457429885864,-1.2562319040298462
1783080690812982300,0.175982177734375,-1.4416756629943848,1.2675977945327759,0.27816563844680786
1783080690832833500,0.19583349609375,-2.507079839706421,0.9469595551490784,1.5930216312408447
1783080690852700200,0.2157001953125,0.7824530005455017,0.3601198196411133,3.081955671310425
1783080690872686600,0.2356865234375,3.3756744861602783,-0.5736792087554932,3.3547372817993164
1783080690892384000,0.255384033203125,2.8797619342803955,-1.4422738552093506,2.466402053833008
1783080690912235300,0.2752353515625,1.201795220375061,-2.117648124694824,0.9607182741165161
1783080690932086000,0.2950859375,-0.8189435601234436,-2.606382131576538,0.1537388563156128
1783080690951952400,0.314952392578125,-1.6091731786727905,-2.709273338317871,-0.243469700217247
1783080690991635200,0.35463525390625,-0.046061836183071136,-2.122433662414551,-0.15732808411121368
1783080691011708400,0.37470849609375,0.004785645287483931,-0.5760720372200012,-0.7561319470405579
1783080691031573200,0.3945732421875,0.44745782017707825,1.358525037765503,-1.5655041933059692
1783080691051206000,0.414205810546875,2.669193744659424,4.758726119995117,-0.5862415432929993
1783080691071188200,0.434188232421875,4.273581027984619,9.238089561462402,0.9415757060050964
1783080691090867000,0.453866943359375,8.922835350036621,16.358531951904297,-1.9746768474578857
1783080691110907000,0.473906982421875,14.525032043457031,24.000608444213867,-7.318448066711426
1783080691130739700,0.49373974609375,19.574485778808594,25.937599182128906,-3.930809497833252
1783080691150453000,0.513452880859375,26.283361434936523,23.155344009399414,2.593221426010132
1783080691170439700,0.533439697265625,28.686952590942383,22.47817611694336,1.1473584175109863
1783080691190137300,0.553137451171875,22.373489379882812,21.062820434570312,-0.7920243144035339
1783080691209984800,0.57298486328125,14.338391304016113,17.15833282470703,-0.5886343717575073
1783080691229817900,0.59281787109375,6.535995006561279,13.181461334228516,-0.5814558863639832
1783080691249858000,0.612858154296875,-0.49351966381073,8.876773834228516,-0.31764721870422363
1783080691269687000,0.63268701171875,-3.9314076900482178,4.825725078582764,-0.9762716293334961
1783080691289347000,0.65234716796875,-1.8963119983673096,1.6845471858978271,-1.0959128141403198
1783080691309199000,0.67219921875,2.073380708694458,-0.25722843408584595,0.0891326442360878
1783080691329070000,0.692070068359375,3.1483564376831055,0.10169496387243271,-1.1341979503631592
1783080691349110300,0.7121103515625,2.087737798690796,1.4925230741500854,-3.119044303894043
1783080691368958500,0.73195849609375,0.33738797903060913,2.423929452896118,-2.8558337688446045
1783080691388791600,0.75179150390625,0.1866401731967926,2.1511476039886475,-0.01615155301988125
1783080691408489500,0.771489501953125,1.252044439315796,1.6845471858978271,1.7772690057754517
1783080691428356600,0.791356689453125,2.0201404094696045,0.9349954724311829,0.9798609018325806
1783080691448355000,0.81135498046875,1.7497515678405762,0.5497509837150574,-1.0887342691421509
1783080691468154400,0.831154296875,1.225723385810852,-0.2763710021972656,-2.7218358516693115
1783080691487889200,0.85088916015625,0.6197410821914673,-1.0426725149154663,-2.977867841720581
1783080691507975400,0.870975341796875,1.378864049911499,-1.1599208116531372,-2.2546372413635254
1783080691527844600,0.8908447265625,1.9148563146591187,-1.3154542446136475,-2.0416758060455322
1783080691547588000,0.910588134765625,2.0709879398345947,-0.09451649338006973,-2.0368902683258057
1783080691567249000,0.930248779296875,1.9028922319412231,1.4973087310791016,-1.2442678213119507
1783080691587101200,0.95010107421875,2.3365912437438965,4.497310161590576,0.22073788940906525
1783080691606972700,0.96997265625,5.475376605987549,8.850452423095703,2.0309081077575684
1783080691627012900,0.990012939453125,13.845470428466797,14.562718391418457,2.5501506328582764
1783080691646861300,1.009861328125,21.16212272644043,21.518054962158203,0.534795880317688
1783080691666710300,1.029710205078125,26.032115936279297,24.45105743408203,2.6081767082214355
1783080691686540000,1.0495400390625,30.772296905517578,22.542781829833984,6.994220733642578
1783080691706220300,1.06922021484375,35.97010803222656,21.965513229370117,5.9264235496521
1783080691726261200,1.08926123046875,33.9326171875,19.602602005004883,3.6299118995666504
1783080691746091300,1.10909130859375,24.724437713623047,17.457435607910156,1.113858938217163
1783080691765751800,1.128751708984375,12.533604621887207,14.584254264831543,-0.9954141974449158
1783080691785623800,1.148623779296875,1.1539387702941895,12.108879089355469,-1.0408778190612793
1783080691805664300,1.168664306640625,-3.1752755641937256,6.479763507843018,3.0795626640319824
1783080691825513000,1.188512939453125,-2.5908286571502686,1.7467604875564575,2.8594231605529785
1783080691845346600,1.2083466796875,-0.03170489892363548,-0.6023930907249451,-0.12143574655056
1783080691865041200,1.228041259765625,1.3932210206985474,-1.2269197702407837,-2.7457640171051025
1783080691884855000,1.24785498046875,-0.5318048596382141,-1.2317054271697998,-3.789632797241211
1783080691904722700,1.26772265625,-3.680161237716675,-0.5904290080070496,-3.576073408126831
1783080691924729000,1.28772900390625,-5.197809219360352,0.39122650027275085,-2.2737796306610107
1783080691944596700,1.3075966796875,-3.6705899238586426,0.5473581552505493,0.4983053207397461
1783080691964256800,1.3272568359375,0.9786644577980042,0.06340979784727097,2.8211379051208496
1783080691984108800,1.34710888671875,5.3748779296875,-0.486939400434494,2.691925525665283
1783080692003979800,1.366979736328125,6.4354963302612305,-0.5856433510780334,0.9439685344696045
1783080692024019700,1.387019775390625,4.957928657531738,-0.1663011759519577,-0.8422735929489136
1783080692043849000,1.406848876953125,2.685943365097046,0.0011964113218709826,-1.0767701864242554
1783080692063508700,1.4265087890625,1.1228320598602295,-0.13519448041915894,-0.19561325013637543
1783080692083360500,1.446360595703125,-0.14895321428775787,-0.05383851006627083,0.14416755735874176
1783080692103231700,1.466231689453125,-1.0971091985702515,0.20458634197711945,0.1417747437953949
1783080692123252200,1.486252197265625,-0.8811569213867188,1.0402796268463135,-0.1501496136188507
1783080692142911700,1.505911865234375,0.09092725813388824,3.6185460090637207,-0.9092726111412048
1783080692162763000,1.525762939453125,2.008176326751709,7.6839518547058105,-1.0504491329193115
1783080692182614300,1.5456142578125,6.689135551452637,13.705490112304688,-0.47557350993156433
1783080692202484700,1.565484619140625,11.968300819396973,20.73261260986328,-0.6580262184143066
1783080692222505200,1.585505126953125,18.107088088989258,24.656841278076172,-0.8183453679084778
1783080692242164200,1.605164306640625,26.484359741210938,21.965513229370117,3.019742250442505
1783080692262015500,1.625015380859375,36.16392517089844,19.803598403930664,2.38983154296875
1783080692281866500,1.644866455078125,35.99882125854492,18.75255012512207,-0.12143574655056
1783080692301737000,1.664737060546875,25.32084846496582,17.388044357299805,-0.794417142868042
1783080692321757200,1.684757080078125,11.963515281677246,14.526825904846191,-0.04007977992296219
1783080692341416000,1.704416015625,-0.0023928226437419653,10.695917129516602,1.333998680114746
1783080692361267200,1.72426708984375,-5.7511491775512695,5.9676995277404785,1.8011972904205322
1783080692381137700,1.7441376953125,-4.173680782318115,2.2157537937164307,-0.004187439568340778
1783080692401177000,1.764177001953125,3.104687452316284,-0.2069791555404663,-2.472383975982666
1783080692421025000,1.78402490234375,7.146164894104004,0.1663011759519577,-3.875774383544922
1783080692440854000,1.80385400390625,3.3445677757263184,0.8871390223503113,-3.5234313011169434
1783080692460514000,1.82351416015625,-1.7742780447006226,2.076970100402832,-1.9627127647399902
1783080692480365800,1.84336572265625,-3.0239295959472656,2.548356056213379,0.7932206988334656
1783080692500237000,1.863237060546875,-0.06759724020957947,2.342573404312134,2.6847469806671143
1783080692520257800,1.8832578125,4.206582069396973,1.9764715433120728,2.806781053543091
1783080692539936800,1.902936767578125,6.006583213806152,1.4733805656433105,3.060420274734497
1783080692559976700,1.922976806640625,4.419543266296387,0.908674418926239,3.273381471633911
1783080692579825200,1.9428251953125,1.6755740642547607,0.4893322288990021,2.4161527156829834
1783080692599673900,1.962673828125,0.7393822073936462,-0.15672987699508667,1.3986048698425293
1783080692619522800,1.982522705078125,2.293520450592041,-0.8297112584114075,0.8315058946609497
1783080692639372000,2.0023720703125,4.42193603515625,-1.0498509407043457,-0.13579268753528595
1783080692659221500,2.022221435546875,4.895715236663818,-0.19262222945690155,-1.557727575302124
1783080692679071200,2.0420712890625,3.418745279312134,1.1335997581481934,-2.2259232997894287
1783080692698921000,2.0619208984375,3.0855448246002197,2.7690939903259277,-1.1437692642211914
1783080692718771000,2.08177099609375,4.816751956939697,5.946164131164551,-0.23389841616153717
1783080692738620700,2.10162060546875,7.816753387451172,12.955938339233398,-1.4979069232940674
1783080692758471000,2.121470947265625,8.831908226013184,18.821943283081055,-2.197209358215332
1783080692778321000,2.14132080078125,12.056835174560547,21.472591400146484,-0.06640082597732544
1783080692798171100,2.161171142578125,18.62872314453125,19.85624122619629,3.160918712615967
1783080692818021000,2.181021240234375,28.538597106933594,18.960725784301758,1.6289139986038208
1783080692837871400,2.200871337890625,34.2867546081543,19.478174209594727,-1.685145378112793
1783080692857721300,2.220721435546875,29.446075439453125,18.125032424926758,-2.5154547691345215
1783080692877571600,2.240571533203125,16.77129364013672,15.022140502929688,-1.9507486820220947
1783080692897421800,2.260421875,2.654836654663086,11.984452247619629,0.5054838061332703
1783080692917272000,2.28027197265625,-4.3483567237854,6.887141704559326,2.231905221939087
1783080692937122300,2.300122314453125,-3.4791641235351562,2.74755859375,0.5802595019340515
1783080692956972500,2.31997265625,-0.2350948303937912,0.22133609652519226,-1.8239290714263916
1783080692976822800,2.33982275390625,2.293520450592041,-0.4247260093688965,-4.395017147064209
1783080692996673000,2.359673095703125,2.7122645378112793,0.5258227586746216,-5.894120216369629
1783080693016523500,2.3795234375,-0.3762713670730591,0.5641079545021057,-4.3758745193481445
1783080693036373800,2.399373779296875,-2.5357937812805176,1.0618150234222412,-2.297708034515381
1783080693056223700,2.4192236328125,-1.1473584175109863,0.6885347366333008,1.333998680114746
1783080693076074200,2.43907421875,2.6285157203674316,-0.48454657196998596,4.037290096282959
1783080693095924500,2.458924560546875,5.535196781158447,-1.2005987167358398,3.7525441646575928
1783080693115774700,2.478774658203125,5.628517150878906,-1.1527422666549683,1.9591234922409058
1783080693135625000,2.498625,4.639683246612549,-0.9589236974716187,0.5826523303985596
1783080693155475200,2.51847509765625,2.8319056034088135,-0.6167500615119934,0.05563312768936157
1783080693175325400,2.538325439453125,0.8614161610603333,-0.19980068504810333,-0.01615155301988125
1783080693195175700,2.55817578125,-0.3068794906139374,0.6095715761184692,-0.6795616149902344
1783080693215026000,2.57802587890625,-0.3164508044719696,2.306680917739868,-1.8263218402862549
1783080693234876400,2.59787646484375,1.252044439315796,5.1152567863464355,-2.355135679244995
1783080693254726700,2.6177265625,5.01296329498291,9.5802640914917,-2.551347255706787
1783080693274577000,2.637576904296875,10.630114555358887,16.01576042175293,-4.150949001312256
1783080693294427100,2.65742724609375,17.07757568359375,22.0468692779541,-6.592824459075928
1783080693314277400,2.67727734375,25.055246353149414,21.77408790588379,-2.4221346378326416
1783080693334108400,2.6971083984375,31.610383987426758,18.18246078491211,-0.16929219663143158
1783080693353789700,2.716789794921875,32.12005615234375,18.252450942993164,-5.589633464813232
1783080693373816000,2.736816162109375,24.320051193237305,18.628124237060547,-7.069594383239746
1783080693393511000,2.756510986328125,13.771292686462402,17.99103546142578,-5.817550182342529
1783080693413325300,2.7763251953125,6.823133945465088,14.56511116027832,-3.6532418727874756
1783080693433177300,2.79617724609375,3.61017107963562,9.10409164428711,0.046061836183071136
1783080693453048800,2.816048828125,0.22971096634864807,4.624129772186279,0.3930211067199707
1783080693473089000,2.836089111328125,-1.561316728591919,1.9262222051620483,-0.7561319470405579
1783080693492918000,2.85591796875,-1.211964726448059,0.36251261830329895,-0.31764721870422363
1783080693512578000,2.875578125,-1.5302101373672485,0.08015955984592438,0.15613168478012085
1783080693532430000,2.89543017578125,-3.019144058227539,0.35054850578308105,-0.19561325013637543
1783080693552301300,2.91530126953125,-4.058227062225342,0.24047867953777313,-0.2745763957500458
1783080693572322000,2.935322021484375,-3.4241292476654053,0.2835494875907898,-0.3774677813053131
1783080693591981600,2.954981689453125,-1.7024933099746704,0.10887342691421509,0.3690928816795349
1783080693611852500,2.9748525390625,1.1443674564361572,-0.631106972694397,1.9112670421600342
1783080693631873300,2.994873291015625,5.334199905395508,-1.3058829307556152,1.602592945098877
1783080693651552300,3.01455224609375,7.357331275939941,-1.4279168844223022,0.3355933725833893
1783080693671573000,3.034572998046875,5.968297958374023,-1.1383854150772095,-0.5479564070701599
1783080693691252200,3.054252197265625,2.9826533794403076,-0.5617151260375977,-1.4117653369903564
1783080693711273000,3.07427294921875,1.1730812788009644,-0.017946170642971992,-2.2785654067993164
1783080693730932700,3.0939326171875,1.194616675376892,0.4462614357471466,-3.1453654766082764
1783080693750803700,3.1138037109375,3.3924243450164795,1.3513466119766235,-4.081557273864746
1783080693770824700,3.13382470703125,5.939583778381348,3.4510483741760254,-6.506682872772217
1783080693790484200,3.153484130859375,7.859824180603027,8.828319549560547,-9.947562217712402
1783080693810335500,3.17333544921875,8.1493558883667,16.509279251098633,-11.103893280029297
1783080693830186800,3.193186767578125,11.58544921875,21.838693618774414,-9.616754531860352
1783080693850057500,3.213057373046875,21.650259017944336,22.6361026763916,-5.230710506439209
1783080693870081500,3.23308154296875,33.86561965942383,18.922441482543945,-1.3423734903335571
1783080693889794000,3.2527939453125,39.37928009033203,18.50848388671875,-3.157329559326172
1783080693909795600,3.272795654296875,32.37189865112305,19.602602005004883,-2.724228620529175
1783080693929643800,3.292643798828125,18.985851287841797,18.026927947998047,0.5539384484291077
1783080693949492500,3.312492431640625,5.2839508056640625,14.498112678527832,3.2279176712036133
1783080693969322200,3.332322265625,-2.6865415573120117,8.895915985107422,4.501497745513916
1783080693988982800,3.351982666015625,-3.594019651412964,3.5228331089019775,3.2997024059295654
1783080694008835000,3.3718349609375,-2.806182861328125,-0.486939400434494,1.731805443763733
1783080694028706600,3.39170654296875,0.02871387079358101,-2.007578134536743,-0.7202396392822266
1783080694048727600,3.4117275390625,0.5455635786056519,-1.9286150932312012,-1.7306089401245117
1783080694068387000,3.431386962890625,-2.255833625793457,-1.5840486288070679,-1.428515076637268
1783080694088238800,3.45123876953125,-4.858027935028076,-1.0977073907852173,-0.8303094506263733
1783080694108090000,3.471090087890625,-5.267798900604248,-0.5497509837150574,-0.4013960063457489
1783080694127960800,3.4909609375,-2.184048891067505,-0.5108676552772522,-0.052043892443180084
1783080694147981300,3.510981201171875,2.812762975692749,-0.9421738982200623,-0.20997019112110138
1783080694167660000,3.530659912109375,5.891727447509766,-0.9828519225120544,-1.2490534782409668
1783080694187680800,3.5506806640625,5.350949764251709,-0.7292127013206482,-2.237887382507324
1783080694207340000,3.570340087890625,3.5479576587677,-0.037088751792907715,-3.55214524269104
1783080694227211000,3.5902109375,1.445863127708435,0.40797626972198486,-3.9020955562591553
1783080694247231700,3.610231689453125,-0.11306086927652359,0.5665007829666138,-2.688336133956909
1783080694266891000,3.62989111328125,-1.439282774925232,1.0259226560592651,-1.9435701370239258
1783080694286742300,3.6497421875,0.02153540402650833,2.1128623485565186,-1.594218134880066
1783080694306613000,3.669613037109375,3.4498519897460938,4.198207378387451,-0.39421752095222473
1783080694326652700,3.689652587890625,8.264211654663086,9.470193862915039,0.8386843204498291
1783080694346481400,3.7094814453125,13.174881935119629,18.27159309387207,0.6640082597732544
1783080694366160600,3.72916064453125,19.15574073791504,25.894529342651367,1.5493526458740234
1783080694386182000,3.749181884765625,29.666215896606445,25.908885955810547,8.511868476867676
1783080694405861000,3.768861083984375,43.01637268066406,21.72623062133789,11.059626579284668
1783080694425901300,3.7889013671875,43.861637115478516,19.686349868774414,6.402595043182373
1783080694445749800,3.808749755859375,29.974889755249023,16.92084503173828,4.849055290222168
1783080694465579500,3.82857958984375,12.348759651184082,14.447863578796387,4.503890514373779
1783080694485240000,3.848239990234375,0.6029912829399109,10.126425743103027,5.093122959136963
1783080694525219800,3.8882197265625,-4.786243438720703,0.25004997849464417,1.9902302026748657
1783080694545080000,3.908080078125,2.3437697887420654,-2.478964328765869,-1.6325032711029053
1783080694564720600,3.927720703125,5.413163185119629,-2.7523441314697266,-3.466003656387329
1783080694584502500,3.94750244140625,1.551147222518921,-1.7682958841323853,-3.9116668701171875
1783080694604406500,3.967406494140625,-3.5605201721191406,-0.7316055297851562,-2.173281192779541
1783080694624407600,3.987407470703125,-4.563711166381836,0.12083754688501358,0.046061836183071136
1783080694644236000,4.007236083984375,-0.9864411354064941,0.04426721855998039,1.9423737525939941
1783080694663895600,4.0268955078125,3.6747772693634033,-0.0729810893535614,2.0931215286254883
1783080694683747000,4.0467470703125,5.434698581695557,-0.0011964113218709826,0.19680966436862946
1783080694703618000,4.0666181640625,4.587040901184082,0.13519448041915894,-2.101496458053589
1783080694723638500,4.086638427734375,2.496910333633423,0.22612173855304718,-3.1860432624816895
1783080694743297800,4.1062978515625,-0.5437689423561096,0.08015955984592438,-2.882154941558838
1783080694763149000,4.126149169921875,-2.1098713874816895,0.3936193287372589,-1.7353945970535278
1783080694783000000,4.146,-3.524627685546875,1.057029366493225,0.0005982056609354913
1783080694802870500,4.16587060546875,-2.923431158065796,3.1136605739593506,0.3810569941997528
1783080694822910000,4.185909912109375,-0.1537388563156128,5.8337016105651855,0.3523431420326233
1783080694842738700,4.20573876953125,5.044070243835449,9.518050193786621,2.854637384414673
1783080694862398200,4.225398193359375,12.41575813293457,15.2620210647583,5.837889194488525
1783080694882249700,4.245249755859375,20.44367790222168,20.9647159576416,6.783652305603027
1783080694902120400,4.265120361328125,24.729223251342773,22.794029235839844,9.7998046875
1783080694922144800,4.285144775390625,30.351160049438477,21.0723934173584,11.760723114013672
1783080694941841700,4.304841552734375,37.744384765625,19.81077766418457,8.014161109924316
1783080694961692400,4.3246923828125,38.218162536621094,17.957534790039062,5.045266628265381
1783080694981543200,4.344543212890625,27.628726959228516,14.21575927734375,4.947160720825195
1783080695021463800,4.3844638671875,-2.602792739868164,10.681560516357422,1.1066805124282837
1783080695041330200,4.404330078125,-7.163512706756592,5.318646430969238,2.816352367401123
1783080695060970200,4.42397021484375,-5.320441246032715,0.7292127013206482,0.8841479420661926
1783080695080776400,4.4437763671875,-1.6211373805999756,-1.892722725868225,-1.3040883541107178
1783080695100815600,4.463815673828125,2.554338216781616,-2.785843849182129,-2.4771697521209717
1783080695120663000,4.4836630859375,0.8183453679084778,-2.0985054969787598,-2.0608184337615967
1783080695140511000,4.503510986328125,-4.1419758796691895,-1.114457130432129,-0.5066801905632019
1783080695160340200,4.52334033203125,-7.621140003204346,-0.08015955984592438,0.7740781307220459
1783080695180020000,4.54302001953125,-5.736792087554932,0.3409772217273712,1.7796618938446045
1783080695200060400,4.563060302734375,-0.7854440212249756,-0.1136590763926506,2.1194427013397217
1783080695219909000,4.5829091796875,4.314259052276611,-0.2955136001110077,1.0396814346313477
1783080695239758000,4.602758056640625,5.96590518951416,-0.16869398951530457,-0.5431707501411438
1783080695259607300,4.622607177734375,3.9690945148468018,0.09930214285850525,-1.2299108505249023
1783080695279456800,4.642456787109375,1.0534402132034302,0.1423729509115219,-0.9212366938591003
1783080695299306500,4.662306396484375,-0.6969096064567566,0.12083754688501358,-0.8374879360198975
1783080695319156200,4.68215625,-0.45523449778556824,0.09690931439399719,-1.0552347898483276
1783080695339006000,4.702005859375,1.5822539329528809,0.5306084156036377,-1.7784653902053833
1783080695358856000,4.72185595703125,4.9124650955200195,2.572284460067749,-2.8654050827026367
1783080695378706000,4.741705810546875,7.558328628540039,7.336992263793945,-3.2578279972076416
1783080695398556000,4.761555908203125,10.115059852600098,14.323436737060547,-2.1852452754974365
1783080695418406100,4.78140625,15.849458694458008,21.12742805480957,-1.459621787071228
1783080695438256000,4.801256103515625,23.127826690673828,22.980669021606445,1.7868403196334839
1783080695458106400,4.8211064453125,30.966115951538086,21.623340606689453,2.121835470199585
1783080695477956400,4.840956298828125,37.780277252197266,21.278175354003906,-2.1996021270751953
1783080695497806800,4.860806884765625,37.73002624511719,19.827526092529297,-2.407777786254883
1783080695517656800,4.88065673828125,27.207590103149414,17.514863967895508,-0.7489534616470337
1783080695537507000,4.900507080078125,13.768899917602539,13.731810569763184,0.778863787651062
1783080695557357300,4.920357421875,2.33180570602417,9.515657424926758,1.2717852592468262
1783080695577207600,4.94020751953125,-3.806980848312378,4.986044406890869,1.7341982126235962
1783080695597057800,4.960057861328125,-3.0861430168151855,1.612762451171875,0.4289134442806244
1783080695616908000,4.979907958984375,-0.7184450030326843,0.05383851006627083,-0.12382857501506805
1783080695636758300,4.99975830078125,-1.836491346359253,-0.36251261830329895,0.005383851006627083
1783080695656608500,5.0196083984375,-5.049454212188721,0.13040883839130402,-0.4061816334724426
1783080695676458800,5.039458740234375,-6.071787357330322,0.3768695592880249,-0.2626122832298279
1783080695696309000,5.05930908203125,-4.700101852416992,0.010767702013254166,0.4145565330982208
1783080695716159200,5.0791591796875,-0.27816563844680786,-0.5808576941490173,0.6185446381568909
1783080695736009500,5.099009521484375,3.7872400283813477,-0.8464609980583191,0.2183450609445572
1783080695755859700,5.118859619140625,5.219344615936279,-0.8799605369567871,0.09870393574237823
1783080695775710000,5.1387099609375,4.632504463195801,-0.48454657196998596,0.010169495828449726
1783080695795560200,5.158560302734375,3.1555347442626953,0.03469592705368996,-0.16689938306808472
1783080695815410400,5.178410400390625,1.6660027503967285,0.35054850578308105,-0.5958128571510315
1783080695835260700,5.1982607421875,0.380458801984787,0.6023930907249451,-0.8566305041313171
1783080695855111200,5.218111083984375,-0.4504488706588745,0.7627122402191162,-0.8231309652328491
1783080695874961400,5.23796142578125,-0.13220344483852386,1.425524115562439,-1.275374412536621
1783080695894811400,5.257811279296875,1.1252248287200928,2.850450038909912,-1.811964988708496
1783080695914661600,5.27766162109375,2.434697151184082,5.701498031616211,-2.4388844966888428
1783080695934512000,5.29751220703125,5.168497085571289,10.439885139465332,-3.504288673400879
1783080695954362400,5.3173623046875,10.318449020385742,15.312270164489746,-4.371088981628418
1783080695974212600,5.337212646484375,15.89013671875,17.328224182128906,-3.152543783187866
1783080695994062800,5.357062744140625,21.7938289642334,17.059629440307617,0.28534409403800964
1783080696013913000,5.3769130859375,30.44926643371582,15.740585327148438,0.6687939167022705
1783080696033744100,5.396744140625,34.351959228515625,17.194225311279297,-2.82951283454895
1783080696053425400,5.41642529296875,28.832914352416992,18.141782760620117,-2.1062822341918945
1783080696073447700,5.43644775390625,20.702102661132812,18.348163604736328,0.4695914387702942
1783080696093108700,5.456108642578125,12.753745079040527,16.5332088470459,1.5882359743118286
1783080696112961300,5.475961181640625,6.3014984130859375,12.774084091186523,1.7676976919174194
1783080696132813300,5.495813232421875,3.2584261894226074,7.593024253845215,2.610569477081299
1783080696152684800,5.515684814453125,5.053641319274902,3.937389612197876,0.5174478888511658
1783080696172705500,5.53570556640625,7.112665176391602,2.0003998279571533,-0.09990034252405167
1783080696192365000,5.555364990234375,4.481756687164307,0.8512466549873352,0.8171489238739014
1783080696212216600,5.575216552734375,-1.664208173751831,0.8297112584114075,-0.7920243144035339
1783080696232068000,5.595068115234375,-6.8620171546936035,1.0785647630691528,-1.8143577575683594
1783080696251938600,5.6149384765625,-8.070990562438965,1.028315544128418,-1.0121639966964722
1783080696271978200,5.634978271484375,-4.83888578414917,0.5306084156036377,-0.43968117237091064
1783080696291806700,5.654806640625,-0.6897311210632324,0.11126625537872314,-0.5455635786056519
1783080696311466500,5.674466552734375,1.9555343389511108,-0.2787638306617737,0.04366901144385338
1783080696331318000,5.694318115234375,2.89890456199646,-0.38644084334373474,0.3595215976238251
1783080696351189000,5.71418896484375,2.6452653408050537,-0.20458634197711945,0.5030909776687622
1783080696371209500,5.73420947265625,1.7473586797714233,0.1256231814622879,0.29730820655822754
1783080696390888200,5.75388818359375,1.2305090427398682,0.47258245944976807,0.019740786403417587
1783080696410928000,5.77392822265625,1.189831018447876,0.8656035661697388,-0.27696922421455383
1783080696430757400,5.79375732421875,0.8422735929489136,1.8137595653533936,-0.8949156403541565
1783080696450436900,5.813436767578125,0.48095735907554626,3.841676712036133,-1.0600204467773438
1783080696470457900,5.833457763671875,2.7912275791168213,6.711867332458496,-0.6317051649093628
1783080696490118000,5.853117919921875,6.361319065093994,11.5914306640625,-1.835893154144287
1783080696509969700,5.8729697265625,13.11266803741455,17.529220581054688,-4.141377925872803
1783080696529821000,5.892821044921875,16.294523239135742,18.233308792114258,-3.0831520557403564
1783080696549691600,5.912691650390625,18.76092529296875,15.422340393066406,5.200799942016602
1783080696569712400,5.93271240234375,25.765914916992188,12.441481590270996,7.680960655212402
1783080696589391000,5.95239111328125,32.615966796875,12.044272422790527,1.3986048698425293
1783080696609431000,5.97243115234375,33.25245666503906,11.876176834106445,0.8003991842269897
1783080696629279200,5.992279296875,23.30250358581543,12.905689239501953,2.0237298011779785
1783080696649127700,6.012127685546875,11.283354759216309,10.789237022399902,3.452843189239502
1783080696668957400,6.03195751953125,2.3365912437438965,8.23011302947998,1.5667005777359009
1783080696688637400,6.051637451171875,-0.4456632137298584,5.02432918548584,0.5395814776420593
1783080696708678400,6.071678466796875,2.135594129562378,3.630510091781616,-1.5242279767990112
1783080696728527400,6.09152734375,4.098307132720947,2.7523441314697266,-2.1613171100616455
1783080696748357000,6.111357177734375,2.5782663822174072,1.9692929983139038,-1.3926228284835815
1783080696768018000,6.131017822265625,1.6588243246078491,1.703689694404602,-1.4644074440002441
1783080696787870500,6.150870361328125,1.4003994464874268,1.4638092517852783,-0.8901300430297852
1783080696807722500,6.170722412109375,1.9100706577301025,1.3537393808364868,0.6329016089439392
1783080696827593700,6.19059375,4.486542224884033,0.9110672473907471,2.988635540008545
1783080696847614200,6.2106142578125,6.030511379241943,0.5712863802909851,3.5916268825531006
1783080696867274000,6.23027392578125,5.036891460418701,0.8392825126647949,2.612962245941162
1783080696887125200,6.250125244140625,2.99222469329834,1.0378868579864502,1.3627125024795532
1783080696906996200,6.269996337890625,1.165902853012085,1.205384373664856,0.714257538318634
1783080696927036000,6.290035888671875,0.760917603969574,1.296311616897583,0.5635097622871399
1783080696946864600,6.30986474609375,0.882951557636261,1.51166570186615,0.6448656916618347
1783080696966544000,6.3295439453125,1.2975081205368042,2.2133610248565674,0.5078766345977783
1783080696986565000,6.349565185546875,2.0416758060455322,3.693321704864502,0.09870393574237823
1783080697026353000,6.389352783203125,4.634897232055664,8.4502534866333,-0.355932354927063
1783080697046217500,6.409217529296875,4.981856822967529,13.4039945602417,-1.9076778888702393
1783080697065836300,6.428836181640625,7.275975227355957,17.813966751098633,-2.724228620529175
1783080697085822500,6.448822509765625,12.375080108642578,16.858631134033203,-0.494716078042984
1783080697105535000,6.468534912109375,18.15972900390625,13.717453956604004,1.8083757162094116
1783080697125536800,6.488536865234375,24.468406677246094,12.017951965332031,1.262213945388794
1783080697145365800,6.50836572265625,28.15096092224121,12.821940422058105,-1.4165509939193726
1783080697165025800,6.52802587890625,24.32483673095703,15.163915634155273,-2.7385854721069336
1783080697184877600,6.547877685546875,16.721044540405273,13.313067436218262,-0.23389841616153717
1783080697204748500,6.56774853515625,7.1988067626953125,10.301101684570312,1.3052847385406494
1783080697224788500,6.58778857421875,0.2967100143432617,6.709474563598633,2.0955145359039307
1783080697244617500,6.607617431640625,0.2847459018230438,3.2955150604248047,1.4847464561462402
1783080697264277500,6.627277587890625,5.123033046722412,2.8935208320617676,-1.5966109037399292
1783080697284148700,6.647148681640625,7.366902828216553,2.71645188331604,-1.9124635457992554
1783080697304189000,6.66718896484375,4.3788652420043945,2.1296122074127197,-0.9451649188995361
1783080697324037000,6.687037109375,1.225723385810852,1.9764715433120728,-1.567897081375122
1783080697343870500,6.706870361328125,0.16031911969184875,1.7874385118484497,-2.4747767448425293
1783080697363568400,6.726568359375,1.8143577575683594,1.4159528017044067,-1.9579271078109741
1783080697383416000,6.746416015625,5.008177757263184,0.7579265832901001,0.18963119387626648
1783080697403249200,6.766249267578125,6.502495765686035,0.4175475537776947,1.0803594589233398
1783080697423270400,6.7862705078125,3.689134359359741,0.7914260625839233,2.66560435295105
1783080697442930000,6.805929931640625,1.7976080179214478,4.425525665283203,10.829317092895508
1783080697462781700,6.82578173828125,0.7920243144035339,2.699702262878418,4.3794636726379395
1783080697482633000,6.845633056640625,2.6500511169433594,2.234896421432495,-3.2793633937835693
1783080697522600400,6.885600341796875,3.8015968799591064,0.8033902049064636,-1.3567304611206055
1783080697562278400,6.9252783203125,8.413164138793945,7.016354084014893,0.8386843204498291
1783080697581882400,6.94488232421875,10.351948738098145,9.448657989501953,-0.12622138857841492
1783080697601753300,6.96475341796875,7.857431411743164,9.099306106567383,-0.047258246690034866
1783080697621774000,6.984774169921875,8.089534759521484,8.285148620605469,3.1441688537597656
1783080697641433300,7.004433349609375,14.376676559448242,6.810571670532227,3.294916868209839
1783080697661284900,7.024284912109375,19.311275482177734,6.781857490539551,2.286940336227417
1783080697681136000,7.04413623046875,19.069599151611328,7.463811874389648,1.26699960231781
1783080697701006600,7.064006591796875,15.885351181030273,8.182256698608398,-0.4899304509162903
1783080697721031000,7.084031005859375,12.209976196289062,8.433503150939941,-0.8638089895248413
1783080697740743400,7.103743408203125,13.378271102905273,7.650452136993408,-0.7920243144035339
1783080697760745000,7.123744873046875,14.855839729309082,5.79063081741333,0.6209374666213989
1783080697780577800,7.143577880859375,13.582259178161621,5.112864017486572,2.5980072021484375
