time,seconds_elapsed,z,y,x
1783080682039369500,0.117369384765625,-0.6467481851577759,-0.5323655009269714,-0.970854640007019
1783080682078810000,0.15681005859375,-0.6302366256713867,-0.46205809712409973,-0.8217177391052246
1783080682098698800,0.17669873046875,-0.6595313549041748,-0.47590652108192444,-0.8499472141265869
1783080682118549000,0.196549072265625,-0.6744450330734253,-0.48016759753227234,-0.7237134575843811
1783080682138553300,0.21655322265625,-0.7127945423126221,-0.46631917357444763,-0.4324970245361328
1783080682158403800,0.23640380859375,-0.7708513736724854,-0.4407528340816498,-0.10705899447202682
1783080682178100200,0.256100341796875,-0.8325035572052002,-0.37577176094055176,0.05845634266734123
1783080682197950500,0.275950439453125,-0.9395625591278076,-0.2841590642929077,0.0882837250828743
1783080682217800700,0.29580078125,-1.1472889184951782,-0.18828535079956055,0.13835111260414124
1783080682237805000,0.31580517578125,-1.4342443943023682,-0.19840535521507263,0.5372923612594604
1783080682257501400,0.33550146484375,-1.561010718345642,-0.6717818975448608,0.7528750896453857
1783080682277505800,0.355505859375,-1.5460970401763916,-0.8022766709327698,-0.8217177391052246
1783080682297202200,0.3752021484375,-1.3235900402069092,0.5826992392539978,-2.1859209537506104
1783080682317206500,0.39520654296875,-1.1206573247909546,0.7472824454307556,-0.46871599555015564
1783080682337057000,0.41505712890625,-1.1797795295715332,-0.12117373943328857,0.5392897129058838
1783080682356907500,0.434907470703125,-1.0775141716003418,-0.2655169665813446,-0.25140222907066345
1783080682376565500,0.4545654296875,-0.8996151685714722,-0.36245596408843994,-0.1315600574016571
1783080682396415500,0.47441552734375,-0.8367645740509033,-0.34807488322257996,0.07763108611106873
1783080682416458200,0.494458251953125,-0.8580698370933533,-0.36618438363075256,0.46698495745658875
1783080682436308700,0.514308837890625,-0.7149250507354736,-0.7234471440315247,1.031441569328308
1783080682456005000,0.534005126953125,-0.5316997170448303,-1.1669963598251343,1.4781864881515503
1783080682475855400,0.55385546875,-0.44488072395324707,-0.8651272058486938,1.2752537727355957
1783080682495902200,0.573902099609375,-0.41292282938957214,-0.6536723971366882,0.6623276472091675
1783080682515775200,0.593775146484375,-0.5593965649604797,-0.5684512853622437,-0.10705899447202682
1783080682535560400,0.613560546875,-0.737828254699707,-0.3779022693634033,-0.7886945605278015
1783080682555411000,0.633410888671875,-0.8394277691841125,-0.09294424951076508,-1.0310420989990234
1783080682575069000,0.65306884765625,-0.7910913825035095,0.37989965081214905,-0.8483493328094482
1783080682594919200,0.672919189453125,-0.6190513372421265,0.623711884021759,-0.3430148959159851
1783080682614961700,0.692961669921875,-0.48855653405189514,0.45446810126304626,0.2150501012802124
1783080682634812200,0.712812255859375,-0.43103229999542236,0.04913528636097908,0.252334326505661
1783080682654662700,0.73266259765625,-0.43689125776290894,-0.31931278109550476,0.04194475710391998
1783080682674513000,0.752512939453125,-0.5237102508544922,-0.5286371111869812,0.07070687413215637
1783080682694363400,0.77236328125,-0.6861629486083984,-0.6334323883056641,0.31198909878730774
1783080682714213600,0.792213623046875,-0.9608678221702576,-0.5307676196098328,0.4046670198440552
1783080682734064000,0.812064208984375,-1.247956395149231,-0.22450430691242218,0.29228171706199646
1783080682753760500,0.831760498046875,-1.4193305969238281,0.027830012142658234,0.13835111260414124
1783080682773610800,0.85161083984375,-1.499758005142212,-0.16591481864452362,0.15646059811115265
1783080682793422300,0.87142236328125,-1.4678001403808594,-0.2468748539686203,0.23955115675926208
1783080682813465000,0.891465087890625,-1.3442295789718628,0.22437115013599396,0.2810964286327362
1783080682833123000,0.911123046875,-1.423059105873108,0.0762995108962059,0.6788392663002014
1783080682852973300,0.930973388671875,-1.5807180404663086,-1.3033500909805298,-0.5113265514373779
1783080682872823300,0.9508232421875,-1.6148065328598022,-0.17390428483486176,-2.2013673782348633
1783080682892673500,0.970673583984375,-1.7953686714172363,1.306412696838379,-1.6763254404067993
1783080682912716500,0.990716552734375,-2.0184082984924316,-0.2852243483066559,-0.0037284228019416332
1783080682952224800,1.030224853515625,-1.6345138549804688,-2.785797595977783,0.8929572701454163
1783080682972074800,1.05007470703125,-2.2431788444519043,-1.8795245885849,0.5573992133140564
1783080682992169500,1.07016943359375,-2.981673002243042,-0.9253146052360535,-0.11132004857063293
1783080683012056000,1.09005615234375,-2.8198859691619873,-0.7538071870803833,-0.20026956498622894
1783080683031696000,1.10969580078125,-2.047170400619507,-1.265533208847046,0.5563339591026306
1783080683051668500,1.12966845703125,-1.6046864986419678,-1.6787223815917969,1.258742094039917
1783080683071364900,1.14936474609375,-1.5764570236206055,-1.3960280418395996,1.2544810771942139
1783080683091215400,1.16921533203125,-1.553553819656372,-1.1797795295715332,0.8791088461875916
1783080683111219700,1.1892197265625,-1.5093454122543335,-1.094025731086731,0.5978792309761047
1783080683130916000,1.208916015625,-1.5061496496200562,-1.245293140411377,0.6585992574691772
1783080683150728000,1.22872802734375,-1.5668696165084839,-1.0775141716003418,0.7523424625396729
1783080683170578200,1.248578125,-1.5551517009735107,-0.6131923794746399,0.6133255362510681
1783080683190621200,1.26862109375,-1.5407706499099731,-0.2527337968349457,0.5440834164619446
1783080683210471700,1.2884716796875,-1.4475600719451904,-0.10519478470087051,0.6340981721878052
1783080683230129700,1.308129638671875,-1.2618048191070557,-0.18295903503894806,0.8103992938995361
1783080683250172400,1.32817236328125,-1.148354172706604,-0.37630438804626465,1.0378330945968628
1783080683269830400,1.347830322265625,-1.1898994445800781,-0.43862229585647583,1.1937611103057861
1783080683289680600,1.3676806640625,-1.161137342453003,-0.39068543910980225,1.2875043153762817
1783080683309723100,1.38772314453125,-0.94648677110672,-0.5030707716941833,1.3673990964889526
1783080683329573600,1.40757373046875,-0.8181225061416626,-0.7127945423126221,1.3322453498840332
1783080683349424400,1.42742431640625,-0.9603351950645447,-0.011451584286987782,1.3524852991104126
1783080683369274600,1.447274658203125,-0.8852340579032898,0.30959224700927734,1.5277211666107178
1783080683389125000,1.467125,-0.7660577297210693,-0.9668599367141724,0.8892288208007812
1783080683408975400,1.486975341796875,-0.7884282469749451,-1.4604763984680176,-0.3334275186061859
1783080683428825900,1.506825927734375,-0.9161267280578613,0.06990792602300644,-0.8376966714859009
1783080683448676400,1.52667626953125,-0.900680422782898,0.18655429780483246,-0.7764440178871155
1783080683468526600,1.546526611328125,-0.6392913460731506,-1.2905669212341309,-0.452737033367157
1783080683488377000,1.566377197265625,-0.4257059693336487,-2.407229423522949,-0.11930952966213226
1783080683508227300,1.586227294921875,-0.45979443192481995,-2.353966236114502,-0.23915168642997742
1783080683528077600,1.60607763671875,-0.8495477437973022,-1.2309120893478394,-1.2322437763214111
1783080683547928000,1.625927978515625,-1.3257205486297607,-0.49348339438438416,-2.023601531982422
1783080683567778300,1.6457783203125,-1.2713921070098877,-0.5302349925041199,-1.4128059148788452
1783080683587628800,1.66562890625,-1.051947832107544,-0.9844367504119873,-0.10226531326770782
1783080683607479000,1.68547900390625,-1.0439584255218506,-1.126516342163086,0.47710496187210083
1783080683627329500,1.70532958984375,-1.0796446800231934,-0.8736493587493896,0.1820269227027893
1783080683647179800,1.7251796875,-1.106276273727417,-0.6451503038406372,-0.19494324922561646
1783080683667030000,1.745030029296875,-1.136103630065918,-0.4391549229621887,-0.2636527419090271
1783080683686880500,1.764880615234375,-1.071122646331787,-0.21704746782779694,0.029694223776459694
1783080683706730800,1.784730712890625,-1.0626004934310913,-0.22663484513759613,0.49947547912597656
1783080683726581000,1.8045810546875,-1.0753836631774902,-0.24794010818004608,0.6921550631523132
1783080683746431500,1.824431396484375,-0.980042576789856,-0.13502216339111328,0.6117276549339294
1783080683766281700,1.84428173828125,-0.8905603885650635,-0.08016108721494675,0.588824450969696
1783080683786132000,1.864132080078125,-0.7452850937843323,-0.10732531547546387,0.7283740043640137
1783080683805982500,1.883982421875,-0.6419544816017151,-0.20319904386997223,0.9515467286109924
1783080683825832700,1.903832763671875,-0.6398239731788635,-0.3592601716518402,1.0984200239181519
1783080683845683200,1.92368310546875,-0.4619249403476715,-0.43649178743362427,1.1681947708129883
1783080683865533400,1.943533447265625,-0.15952323377132416,-0.33795487880706787,1.1953589916229248
1783080683885383700,1.9633837890625,-0.17017586529254913,0.004926844500005245,1.0218541622161865
1783080683905234200,1.983234130859375,-0.4006722867488861,0.23342590034008026,1.0586057901382446
1783080683925084400,2.00308447265625,-0.3063964545726776,-0.21651484072208405,0.923849880695343
1783080683944934700,2.0229345703125,-0.36179015040397644,-0.838495671749115,-0.1368863731622696
1783080683964785200,2.04278515625,-0.4986765384674072,-0.17816534638404846,-1.0310420989990234
1783080683984635400,2.062635498046875,-0.2749711871147156,0.40280282497406006,-1.0820415019989014
1783080684004541700,2.082541748046875,0.0141147430986166,-0.40400123596191406,-0.5964145064353943
1783080684024402000,2.10240185546875,0.07430213689804077,-1.4146701097488403,-0.053795814514160156
1783080684044032000,2.122031982421875,0.03808317333459854,-1.854490876197815,0.08775109052658081
1783080684064036000,2.1420361328125,-0.19680745899677277,-1.3310469388961792,-0.33555805683135986
1783080684083848200,2.16184814453125,-0.6930871605873108,-0.6275734305381775,-1.2535489797592163
1783080684103737000,2.181737060546875,-1.0333057641983032,-0.2942790687084198,-1.844637155532837
1783080684123433500,2.20143359375,-0.9933583736419678,-0.3560643792152405,-1.304681658744812
1783080684143283500,2.221283447265625,-0.7351650595664978,-0.7601987719535828,-0.07297056168317795
1783080684163287800,2.241287841796875,-0.6558029055595398,-1.1579415798187256,0.21664799749851227
1783080684182984200,2.260984130859375,-0.7213166356086731,-0.9998830556869507,-0.6464818716049194
1783080684202796000,2.280796142578125,-0.6957502961158752,-0.23355905711650848,-1.2775174379348755
1783080684222684700,2.3006845703125,-0.683499813079834,0.2824280261993408,-0.8781766891479492
1783080684242535000,2.320534912109375,-0.5940176248550415,0.24035011231899261,-0.06977476924657822
1783080684262539300,2.340539306640625,-0.36551859974861145,-0.16378428041934967,0.3476754128932953
1783080684282235600,2.360235595703125,-0.16058848798274994,-0.12703268229961395,0.2656501233577728
1783080684302086000,2.3800859375,-0.09720530360937119,0.28083011507987976,0.0930774137377739
1783080684321897700,2.399897705078125,-0.05832318589091301,0.392682820558548,0.16604797542095184
1783080684341748000,2.419748046875,0.07696529477834702,0.1327584832906723,0.60533607006073
1783080684361790700,2.439790771484375,0.1994706094264984,-0.23515695333480835,1.042094111442566
1783080684381641200,2.45964111328125,0.20213377475738525,-0.20799273252487183,1.074584722518921
1783080684401299200,2.47929931640625,0.1861548274755478,0.269112229347229,0.8327698707580566
1783080684421149400,2.4991494140625,0.2728406488895416,0.6189181804656982,0.6064013242721558
1783080684440999700,2.518999755859375,0.38362807035446167,0.6508761048316956,0.5122586488723755
1783080684461042400,2.53904248046875,0.637693464756012,0.401204913854599,0.9131972789764404
1783080684480700400,2.558700439453125,0.7846998572349548,-0.02263685315847397,1.0080057382583618
1783080684500787700,2.57878759765625,0.4672512710094452,0.1609879732131958,0.546746551990509
1783080684540305000,2.618304931640625,0.36498594284057617,0.5555350184440613,-0.6012081503868103
1783080684560294000,2.6382939453125,0.3538006842136383,-0.45726442337036133,-0.5543365478515625
1783080684579951900,2.657951904296875,0.2968090772628784,-1.4008216857910156,-0.45380231738090515
1783080684599802000,2.677802001953125,0.23835274577140808,-1.3299816846847534,-0.8515450954437256
1783080684619652400,2.69765234375,-0.01784316636621952,-0.7048050761222839,-1.6816518306732178
1783080684639695400,2.7176953125,-0.4059986174106598,-0.14460954070091248,-2.127997398376465
1783080684659545900,2.7375458984375,-0.3953459560871124,-0.17763271927833557,-1.3259868621826172
1783080684679203800,2.757203857421875,-0.32450592517852783,-0.6440850496292114,-0.13209268450737
1783080684699246600,2.77724658203125,-0.4065312445163727,-0.9839041233062744,0.26831328868865967
1783080684718904300,2.796904296875,-0.4619249403476715,-0.68829345703125,-0.08522108942270279
1783080684738947000,2.816947021484375,-0.4949481189250946,0.009720530360937119,-0.532099187374115
1783080684758682000,2.83668212890625,-0.5647228956222534,0.4619249403476715,-0.43409493565559387
1783080684778455300,2.856455322265625,-0.5087965726852417,0.47843652963638306,0.12716585397720337
1783080684798498000,2.876498046875,-0.33782172203063965,0.14021532237529755,0.6191844940185547
1783080684818156000,2.896156005859375,-0.17443692684173584,-0.3028011918067932,0.6783066391944885
1783080684838198800,2.91619873046875,-0.06151897460222244,-0.32410645484924316,0.3902859687805176
1783080684857856800,2.935856689453125,-0.02157158963382244,-0.00612526573240757,0.1639174371957779
1783080684877707000,2.95570703125,-0.04554001986980438,0.14500901103019714,0.46165862679481506
1783080684897557200,2.97555712890625,-0.09507478028535843,-0.07057371735572815,0.9856351613998413
1783080684917600000,2.99560009765625,-0.1435442715883255,-0.41465386748313904,1.3008201122283936
1783080684937450500,3.015450439453125,-0.28668907284736633,-0.33848753571510315,1.2843084335327148
1783080684957108200,3.035108154296875,-0.5263733863830566,0.04966791719198227,1.1223883628845215
1783080684976958500,3.05495849609375,-0.48323023319244385,0.3106575012207031,0.8823046088218689
1783080684997050000,3.075050048828125,-0.3261038362979889,0.4427502155303955,0.8881635665893555
1783080685016851700,3.094851806640625,-0.3538006842136383,0.6135918498039246,1.341300129890442
1783080685036702200,3.1147021484375,-0.44061967730522156,0.08322372287511826,1.1783146858215332
1783080685056360200,3.134360107421875,-0.4001396596431732,-0.4258391261100769,0.0834900364279747
1783080685076403000,3.15440283203125,-0.10945583879947662,-0.0141147430986166,-0.7860314249992371
1783080685096060700,3.174060791015625,0.2671148478984833,-0.204264298081398,-0.950082004070282
1783080685116103400,3.194103515625,0.6542050242424011,-0.910400927066803,-0.06977476924657822
1783080685135954000,3.213953857421875,0.9363667368888855,-1.9892467260360718,0.9845699071884155
1783080685155650300,3.233650390625,0.854341447353363,-1.8550235033035278,0.7992140650749207
1783080685175500500,3.25350048828125,0.2660495936870575,-0.6520745158195496,-0.5484775900840759
1783080685195350500,3.2733505859375,-0.18775272369384766,0.378301739692688,-1.6992286443710327
1783080685215355000,3.29335498046875,-0.3154512047767639,0.3777691125869751,-1.309475302696228
1783080685235205400,3.313205322265625,-0.23196116089820862,-0.11158636957406998,0.3604585826396942
1783080685254863400,3.33286328125,-0.1153147891163826,-0.7053377032279968,1.139965295791626
1783080685274713600,3.352713623046875,-0.22929799556732178,-1.0924278497695923,0.29281434416770935
1783080685294563600,3.3725634765625,-0.4768386483192444,-0.5169191956520081,-0.8781766891479492
1783080685314606600,3.392606689453125,-0.7117292881011963,0.47470811009407043,-1.1448920965194702
1783080685334456800,3.412456787109375,-0.8330361843109131,0.912930965423584,-0.41225701570510864
1783080685354307300,3.432307373046875,-0.7085334658622742,0.434760719537735,0.37324175238609314
1783080685374157800,3.45215771484375,-0.3218427896499634,-0.32091066241264343,0.5165197253227234
1783080685393815800,3.47181591796875,0.019973693415522575,-0.3608580529689789,0.262986958026886
1783080685413781200,3.49178125,0.013049479573965073,-0.09507478028535843,0.03075948730111122
1783080685433708800,3.511708740234375,-0.048735812306404114,-0.13129374384880066,-0.13528847694396973
1783080685453366500,3.531366455078125,0.04394212365150452,-0.22663484513759613,-0.20932430028915405
1783080685473216800,3.551216796875,0.07909582555294037,-0.11371689289808273,0.040879491716623306
1783080685493259500,3.571259521484375,0.029561065137386322,-0.30173593759536743,0.3524691164493561
1783080685513110000,3.591110107421875,-0.002929474925622344,-0.5716471076011658,0.518650233745575
1783080685532960300,3.610960205078125,0.027430538088083267,-0.06524740159511566,0.5691171288490295
1783080685552618200,3.6306181640625,0.30053749680519104,0.8873646259307861,0.5813676118850708
1783080685572468500,3.650468505859375,0.27177539467811584,1.2355726957321167,0.7475487589836121
1783080685592318700,3.670318603515625,0.002929474925622344,0.4017375409603119,0.6127929091453552
1783080685612361500,3.690361572265625,-0.13289164006710052,0.23928484320640564,-1.1640667915344238
1783080685632019200,3.710019287109375,0.013049479573965073,2.4667510986328125,-2.1544957160949707
1783080685651869400,3.729869384765625,0.9486172795295715,2.6664881706237793,-1.0747178792953491
1783080685671719700,3.7497197265625,1.9811240434646606,1.1950926780700684,1.1490199565887451
1783080685691570000,3.76956982421875,2.5615596771240234,-0.3507380485534668,2.695915937423706
1783080685711613000,3.789613037109375,2.5764732360839844,-1.119059443473816,2.6268069744110107
1783080685731270700,3.809270751953125,1.5146716833114624,-0.39974018931388855,1.1468894481658936
1783080685751121000,3.829120849609375,0.4342280924320221,1.3170653581619263,-0.7327682375907898
1783080685770971100,3.84897119140625,0.04554001986980438,2.19564151763916,-1.321725845336914
1783080685791014100,3.86901416015625,0.4059986174106598,1.8234649896621704,-0.3765707015991211
1783080685810864600,3.88886474609375,0.9986846446990967,0.7009434700012207,0.8008119463920593
1783080685830522400,3.9085224609375,1.1968237161636353,0.15725953876972198,0.7960182428359985
1783080685850565000,3.928565185546875,0.988564670085907,0.17164060473442078,-0.2588590681552887
1783080685870223000,3.94822314453125,0.801211416721344,0.46991443634033203,-1.3323785066604614
1783080685890073300,3.9680732421875,0.7506113648414612,0.7201182246208191,-1.6008249521255493
1783080685910116000,3.9881162109375,0.8676572442054749,0.7861645817756653,-0.9756483435630798
1783080685929966600,4.007966552734375,0.9922930598258972,0.41665124893188477,-0.10652636736631393
1783080685949817000,4.027817138671875,1.101482629776001,0.08801741153001785,0.12823110818862915
1783080685969667600,4.04766748046875,1.1227878332138062,0.4022701680660248,-0.12942953407764435
1783080685989517800,4.067517822265625,0.8916256427764893,0.9864341020584106,-0.2972085475921631
1783080686009368000,4.0873681640625,0.5897566080093384,1.4859095811843872,-0.34088435769081116
1783080686029218600,4.107218505859375,0.49814391136169434,1.8090839385986328,-0.3813643753528595
1783080686049068800,4.12706884765625,0.5359607934951782,1.7947028875350952,-0.3611243665218353
1783080686068919300,4.146919189453125,0.6648576855659485,1.7094818353652954,-0.32597067952156067
1783080686088769500,4.16676953125,0.8889625072479248,1.611610770225525,-0.20133483409881592
1783080686108620000,4.1866201171875,1.0088046789169312,1.4044169187545776,-0.13475584983825684
1783080686128470300,4.20647021484375,1.390568494796753,1.549292802810669,-0.5500755310058594
1783080686148320500,4.226320556640625,1.8305224180221558,2.345311164855957,-0.7886945605278015
1783080686168171000,4.2461708984375,1.8225328922271729,2.707900285720825,-0.6709829568862915
1783080686188021200,4.266021240234375,2.0034945011138916,2.161553144454956,-0.731702983379364
1783080686207871500,4.28587158203125,2.5104269981384277,2.2393174171447754,-0.46285703778266907
1783080686227722000,4.305721923828125,2.7735469341278076,2.6339974403381348,0.4739091694355011
1783080686247572200,4.325572265625,2.807635545730591,2.099900960922241,1.2459590435028076
1783080686267422500,4.34542236328125,2.579136371612549,1.2153326272964478,1.0271804332733154
1783080686287273000,4.36527294921875,2.3805978298187256,1.130111575126648,-0.11877689510583878
1783080686307123200,4.385123291015625,2.0988357067108154,1.2291810512542725,-1.195492148399353
1783080686326973400,4.404973388671875,1.9028271436691284,1.6370439529418945,-1.1347720623016357
1783080686346747000,4.424746826171875,1.688309669494629,1.887913465499878,0.04354264959692955
1783080686366674000,4.444673828125,1.494431734085083,1.4859095811843872,0.8769782781600952
1783080686386524400,4.4645244140625,1.39749276638031,0.8607330322265625,0.6490118503570557
1783080686406374700,4.484374755859375,1.4411685466766357,0.5167860388755798,-0.13848426938056946
1783080686426225200,4.50422509765625,1.4369075298309326,0.6290381550788879,-0.47723811864852905
1783080686446075400,4.524075439453125,1.2165310382843018,0.8623309135437012,-0.1177116334438324
1783080686465925600,4.543925537109375,0.9859014749526978,1.1109367609024048,0.3093259334564209
1783080686485776000,4.56377587890625,0.9869667887687683,1.4928338527679443,0.3455449044704437
1783080686505679600,4.5836796875,1.1217225790023804,1.6285218000411987,0.21611535549163818
1783080686525539800,4.603539794921875,1.3628716468811035,1.6132086515426636,0.1117195263504982
1783080686545326800,4.623326904296875,1.6009581089019775,1.4725937843322754,0.2384859025478363
1783080686565177000,4.643177001953125,1.7064192295074463,1.246757984161377,0.5547360181808472
1783080686585027600,4.663027587890625,1.6414381265640259,1.0444910526275635,0.7954856157302856
1783080686604877800,4.6828779296875,1.5311833620071411,1.3591432571411133,0.7102645039558411
1783080686624728000,4.70272802734375,1.469398021697998,1.9331872463226318,0.45739758014678955
1783080686644578600,4.72257861328125,1.372459053993225,2.2536983489990234,0.41159123182296753
1783080686664428800,4.7424287109375,1.1297121047973633,2.733466386795044,0.45260387659072876
1783080686684279000,4.762279052734375,0.825046718120575,3.9827544689178467,0.7422224283218384
1783080686703937000,4.78193701171875,0.8676572442054749,4.594082832336426,0.9190561771392822
1783080686723979500,4.8019794921875,1.0695246458053589,2.9736833572387695,-0.12516847252845764
1783080686743637500,4.821637451171875,1.39003586769104,1.5056170225143433,-1.3776521682739258
1783080686763680000,4.841679931640625,1.7357139587402344,2.494980573654175,-0.5585976243019104
1783080686783338000,4.861337890625,1.932654619216919,2.965693950653076,2.18365740776062
1783080686803188000,4.88118798828125,2.417882204055786,1.2329095602035522,3.7013916969299316
1783080686823038200,4.9010380859375,2.3726084232330322,-0.06684529036283493,3.7689027786254883
1783080686842888200,4.92088818359375,2.0232019424438477,-0.6259755492210388,2.6278722286224365
1783080686862931000,4.940930908203125,1.506682276725769,-0.7154576778411865,0.6910898089408875
1783080686882589000,4.9605888671875,0.8676572442054749,0.13009531795978546,-1.0496841669082642
1783080686902631700,4.980631591796875,0.5295692086219788,1.1849726438522339,-1.4255890846252441
1783080686922289700,5.00028955078125,0.6270408034324646,1.5397053956985474,-0.40213701128959656
1783080686942140000,5.020139892578125,0.9475520253181458,0.9395625591278076,0.8210519552230835
1783080686962182700,5.0401826171875,1.2074763774871826,-0.1296958476305008,0.9286435842514038
1783080686981840600,5.059840576171875,1.2074763774871826,-0.7282408475875854,0.012650005519390106
1783080687001948700,5.07994873046875,0.9566067457199097,-0.3507380485534668,-1.075250506401062
1783080687041464800,5.11946484375,0.10519478470087051,1.3362400531768799,-1.3504879474639893
1783080687061434000,5.13943408203125,-0.04980107396841049,1.1285136938095093,-0.9479514956474304
1783080687081092000,5.159092041015625,-0.008788425475358963,0.7552719116210938,-0.7961513996124268
1783080687100942300,5.1789423828125,0.11957584321498871,0.6599308252334595,-0.953810453414917
1783080687120792600,5.19879248046875,0.15952323377132416,0.9161267280578613,-1.04329252243042
1783080687140642800,5.218642822265625,0.13022847473621368,0.9741836190223694,-0.6443513631820679
1783080687160685600,5.238685546875,0.11638005077838898,0.699345588684082,-0.1741705983877182
1783080687180536000,5.2585361328125,0.18722008168697357,0.4954807460308075,0.05099949613213539
1783080687200194000,5.278194091796875,0.32290804386138916,0.6945518851280212,0.16977639496326447
1783080687220041700,5.298041748046875,0.17923060059547424,1.53650963306427,0.4792354702949524
1783080687240092200,5.318092041015625,-0.17390428483486176,2.5919196605682373,1.0532793998718262
1783080687259941600,5.337941650390625,-0.14727269113063812,2.0333218574523926,0.839694082736969
1783080687279791400,5.357791259765625,-0.1009337306022644,0.8325035572052002,-0.11238531768321991
1783080687299641000,5.37764111328125,-0.01837579719722271,1.502421259880066,-0.3067959249019623
1783080687319490800,5.39749072265625,0.45127230882644653,1.6583491563796997,0.5563339591026306
1783080687339340800,5.4173408203125,1.068459391593933,-0.10892320424318314,1.595898151397705
1783080687359190800,5.437190673828125,1.2591415643692017,-1.4721943140029907,1.559146523475647
1783080687379040800,5.457040771484375,1.2202595472335815,-1.3954954147338867,0.2725743353366852
1783080687398891000,5.47689111328125,0.5615270733833313,-0.7026745080947876,-1.4825806617736816
1783080687418741200,5.4967412109375,0.11904320865869522,0.3298322558403015,-2.312154769897461
1783080687438591200,5.51659130859375,0.1904158741235733,0.565654993057251,-1.3616732358932495
1783080687458441500,5.53644140625,0.3032006621360779,-0.1153147891163826,0.09627319872379303
1783080687478291700,5.556291748046875,0.2893522381782532,-0.671249270439148,0.4403533637523651
1783080687498142000,5.576141845703125,0.0918789878487587,-0.5471460223197937,-0.3419496417045593
1783080687517992200,5.5959921875,-0.2930806577205658,0.08002793043851852,-1.3749890327453613
1783080687537842700,5.6158427734375,-0.5647228956222534,0.6396908164024353,-1.6550202369689941
1783080687557693000,5.63569287109375,-0.6046702861785889,0.4331628382205963,-1.0656630992889404
1783080687577543200,5.655543212890625,-0.46352285146713257,-0.07856319099664688,-0.35100436210632324
1783080687597393400,5.675393310546875,-0.32344067096710205,-0.3464770019054413,-0.07936213910579681
1783080687617243600,5.69524365234375,-0.28988486528396606,-0.0141147430986166,-0.11132004857063293
1783080687637094000,5.715093994140625,-0.32237541675567627,0.40866175293922424,0.08615319430828094
1783080687656944400,5.7349443359375,-0.2840259075164795,0.3878891170024872,0.5520728826522827
1783080687676794600,5.754794677734375,-0.18775272369384766,0.10985531657934189,1.019191026687622
1783080687696644900,5.774644775390625,-0.19148114323616028,-0.07004108279943466,1.3242558240890503
1783080687716495000,5.7944951171875,-0.33302804827690125,0.06937529146671295,1.350354790687561
1783080687736345600,5.814345703125,-0.359127014875412,0.36605122685432434,1.1729884147644043
1783080687756195800,5.83419580078125,-0.22237378358840942,0.8117309212684631,1.0994852781295776
1783080687776046000,5.854046142578125,0.019973693415522575,1.390568494796753,1.2150663137435913
1783080687795896300,5.873896240234375,0.18455693125724792,0.9108003973960876,1.144758939743042
1783080687815746800,5.893746826171875,0.5588639378547668,-0.3070622384548187,0.04247738793492317
1783080687835597000,5.91359716796875,0.7527419328689575,0.014514217153191566,-1.2732564210891724
1783080687855447300,5.933447265625,0.6829671263694763,1.368198037147522,-1.0395641326904297
1783080687875297800,5.9532978515625,0.8926909565925598,0.27710169553756714,0.0930774137377739
1783080687895148000,5.97314794921875,1.138234257698059,-1.2128026485443115,0.6516750454902649
1783080687914998300,5.992998291015625,1.0849710702896118,-1.0504831075668335,0.3002711832523346
1783080687934848500,6.0128486328125,0.6888260841369629,-0.9114661812782288,-0.6587324142456055
1783080687954699000,6.032698974609375,-0.04127896577119827,-0.38962018489837646,-2.081658363342285
1783080687974549200,6.05254931640625,-0.5652555227279663,0.7249119281768799,-2.8004448413848877
1783080688014308600,6.09230859375,-0.003994738683104515,-0.19787272810935974,-0.31691592931747437
1783080688034154000,6.112154052734375,0.25859275460243225,-1.1158636808395386,0.49095338582992554
1783080688053815600,6.131815673828125,0.28615644574165344,-0.8358324766159058,0.19374482333660126
1783080688073790200,6.151790283203125,0.0007989477599039674,0.13116058707237244,-0.3398191034793854
1783080688093450200,6.1714501953125,-0.2601906359195709,0.5635244846343994,-0.41225701570510864
1783080688113301800,6.1913017578125,-0.302668035030365,0.4720449447631836,-0.11504847556352615
1783080688133153300,6.2111533203125,-0.23515695333480835,0.23928484320640564,0.3050648868083954
1783080688153024000,6.23102392578125,-0.17923060059547424,-0.02210422046482563,0.5197154879570007
1783080688173044700,6.251044677734375,-0.22184115648269653,-0.008788425475358963,0.3796333372592926
1783080688192723500,6.270723388671875,-0.10998847335577011,0.31385329365730286,0.20812588930130005
1783080688212763400,6.290763427734375,-0.02157158963382244,0.43209755420684814,0.1921469271183014
1783080688232611600,6.310611572265625,0.011984216049313545,0.3633880615234375,0.2805638015270233
1783080688252460300,6.330460205078125,0.03701791167259216,0.3687143921852112,0.327968031167984
1783080688272293600,6.350293701171875,0.17816534638404846,0.508263885974884,0.38815543055534363
1783080688292007700,6.370007568359375,0.3388870060443878,0.6530066132545471,0.43875545263290405
1783080688311995000,6.389994873046875,0.4587291479110718,1.2078758478164673,0.4067975580692291
1783080688331693000,6.409693115234375,0.6046702861785889,1.929458737373352,0.6980140209197998
1783080688351560400,6.429560546875,0.5732449889183044,1.2707263231277466,0.8290414214134216
1783080688371543600,6.44954345703125,0.39001965522766113,-0.03435475379228592,-0.0516652874648571
1783080688391203600,6.46920361328125,0.3623228073120117,0.6263750195503235,-0.8552735447883606
1783080688411055600,6.4890556640625,0.37936702370643616,1.3564801216125488,-0.928776741027832
1783080688430907100,6.5089072265625,0.7937545776367188,0.3410175144672394,-0.8574040532112122
1783080688450778000,6.528778076171875,1.2245205640792847,-1.3294490575790405,-1.2418310642242432
1783080688470798600,6.548798583984375,1.2271836996078491,-1.712278127670288,-1.8771276473999023
1783080688510585300,6.58858544921875,0.45553335547447205,0.19241324067115784,-3.0140302181243896
1783080688530450400,6.608450439453125,-0.24314641952514648,0.6151897311210632,-2.6987123489379883
1783080688550110200,6.628110107421875,-0.4752407371997833,0.7344992756843567,-1.6614117622375488
1783080688570071800,6.64807177734375,-0.3154512047767639,0.5301018357276917,-0.5868270993232727
1783080688589900300,6.667900390625,-0.25806012749671936,-0.1898832470178604,-0.15126743912696838
1783080688609559800,6.687559814453125,-0.31917962431907654,-0.6190513372421265,-0.4852275848388672
1783080688629430800,6.7074306640625,-0.31012487411499023,-0.525973916053772,-0.9996167421340942
1783080688649470500,6.727470458984375,-0.34314805269241333,-0.2937464416027069,-1.0400967597961426
1783080688669299500,6.747299560546875,-0.5226449966430664,-0.17496955394744873,-0.5649892091751099
1783080688688959200,6.766959228515625,-0.6467481851577759,-0.10359688848257065,-0.042610544711351395
1783080688708830500,6.78683056640625,-0.6206492185592651,-0.22663484513759613,0.2587259113788605
1783080688728870700,6.80687060546875,-0.5221123695373535,-0.3688475489616394,0.474441796541214
1783080688748699600,6.82669970703125,-0.4390217661857605,-0.1573926955461502,0.5771065950393677
1783080688768360000,6.84635986328125,-0.5199818015098572,-0.1531316488981247,0.6154560446739197
1783080688788211700,6.866211669921875,-0.8372972011566162,-0.26818013191223145,0.7081339955329895
1783080688808063200,6.886063232421875,-0.8607330322265625,-0.14247901737689972,0.8503466844558716
1783080688827934000,6.905933837890625,-0.612659752368927,0.0715058222413063,1.0080057382583618
1783080688847974000,6.925973876953125,-0.5679186582565308,0.7126613855361938,1.0872347354888916
1783080688867802600,6.945802734375,-0.46884915232658386,1.62692391872406,1.2385021448135376
1783080688887462700,6.965462646484375,-0.6195839643478394,0.9864341020584106,1.2331758737564087
1783080688907334000,6.985333984375,-0.3692470192909241,-0.926379919052124,0.15646059811115265
1783080688927373800,7.005373779296875,0.11851058155298233,-1.373657464981079,-0.8169240355491638
1783080688947202800,7.025202880859375,0.16378428041934967,0.18122798204421997,-0.21411798894405365
1783080688966863000,7.044863037109375,0.3527354300022125,0.43156492710113525,0.6665887236595154
1783080688986951200,7.064951171875,1.0056089162826538,-0.7442198395729065,0.8492814302444458
1783080689026673400,7.10467333984375,1.1004173755645752,-2.5952484607696533,0.49947547912597656
1783080689046538500,7.12453857421875,0.6744450330734253,-1.327318549156189,-0.022903168573975563
1783080689066178800,7.1441787109375,-0.035952646285295486,-0.18455693125724792,-0.2684464454650879
1783080689085972000,7.163971923828125,-0.392682820558548,0.22117535769939423,0.05472791939973831
1783080689105842000,7.183842041015625,-0.359127014875412,-0.14674006402492523,0.5048018097877502
1783080689125881000,7.203881103515625,-0.09081372618675232,-0.8544746041297913,0.743820309638977
1783080689145709300,7.223709228515625,0.12170637398958206,-1.1291794776916504,0.24487747251987457
1783080689165368600,7.24336865234375,-0.024767380207777023,-0.7516766786575317,-0.555934488773346
1783080689185219800,7.2632197265625,-0.4326302111148834,-0.07856319099664688,-0.9357009530067444
1783080689205090600,7.283090576171875,-0.7287734746932983,0.5949497222900391,-0.9804420471191406
1783080689225130200,7.303130126953125,-0.7942872047424316,0.6844319105148315,-0.5342296957969666
1783080689244959000,7.322958984375,-0.7186535000801086,0.2318280041217804,0.18788588047027588
1783080689264634400,7.34263427734375,-0.5056007504463196,-0.27403905987739563,0.6325002908706665
1783080689284621300,7.362621337890625,-0.32770171761512756,-0.3560643792152405,0.8167908787727356
1783080689304339000,7.3823388671875,-0.28029748797416687,-0.08282424509525299,0.8625972270965576
1783080689324379100,7.402379150390625,-0.2601906359195709,0.10825742036104202,0.823715090751648
1783080689344208400,7.42220849609375,-0.23089589178562164,0.3772364854812622,0.8993488550186157
1783080689363872500,7.44187255859375,-0.19787272810935974,0.5231776237487793,1.0984200239181519
1783080689383762200,7.46176220703125,-0.1994706094264984,0.5141228437423706,1.1969568729400635
1783080689403628500,7.481628662109375,-0.24953800439834595,0.565654993057251,0.8753803968429565
1783080689423630600,7.501630615234375,-0.3261038362979889,1.0082720518112183,0.3833617568016052
1783080689443459800,7.5214599609375,-0.24474431574344635,0.9789772629737854,-0.06711161136627197
1783080689463120000,7.541119873046875,-0.09241162240505219,-0.31079065799713135,-0.7652587890625
1783080689482972000,7.560971923828125,-0.1525990217924118,-0.36671701073646545,-1.635845422744751
1783080689502843100,7.580843017578125,-0.15153375267982483,0.33249542117118835,-2.0544941425323486
1783080689522863900,7.60086376953125,0.16431692242622375,0.019840534776449203,-1.3728585243225098
1783080689542523400,7.6205234375,0.4938828647136688,-0.14247901737689972,-0.3568633198738098
1783080689562375000,7.640375,0.5434176325798035,-0.7197187542915344,-0.343547523021698
1783080689582226200,7.66022607421875,0.6430197358131409,-0.8166577219963074,-0.9372988343238831
1783080689602096600,7.6800966796875,0.6733797788619995,-0.425306499004364,-1.4452964067459106
1783080689622136300,7.70013623046875,0.378301739692688,0.3292996287345886,-1.1688605546951294
1783080689641965000,7.719965087890625,0.04607265070080757,0.5018723607063293,-0.4319643974304199
1783080689661624600,7.73962451171875,0.0018642114009708166,0.4800344407558441,-0.006391582079231739
1783080689681495800,7.759495849609375,-0.002929474925622344,0.28988486528396606,0.0062584239058196545
1783080689701535700,7.77953564453125,0.018908429890871048,-0.05566002428531647,-0.3211769759654999
1783080689721384200,7.79938427734375,0.07536740601062775,-0.14141374826431274,-0.6619281768798828
1783080689741213400,7.81921337890625,0.15472954511642456,-0.3699128031730652,-0.615056574344635
1783080689760893400,7.8388935546875,0.21491694450378418,-0.4455465078353882,-0.475640207529068
1783080689780915000,7.8589150390625,-0.2186453640460968,-0.19201377034187317,-0.42131176590919495
1783080689800594700,7.8785947265625,-0.7916240692138672,0.22969746589660645,-0.5538039207458496
1783080689820616000,7.898615966796875,-0.3644533157348633,0.11944268643856049,-0.3627222776412964
1783080689840276000,7.91827587890625,-0.4677838981151581,-0.32676962018013,0.19907113909721375
1783080689860147500,7.9381474609375,-0.27603644132614136,0.1615206003189087,0.2486059069633484
1783080689880168400,7.95816845703125,-0.1392832249403,-0.35712963342666626,0.8162582516670227
1783080689899847700,7.97784765625,-0.0679105594754219,-0.3741738498210907,1.1708579063415527
1783080689919868700,7.99786865234375,-0.1664474457502365,-0.1009337306022644,1.0591384172439575
1783080689939548200,8.017548095703125,-0.1861548274755478,0.16471639275550842,0.9643298983573914
1783080689959588400,8.03758837890625,-0.031158961355686188,0.026232117787003517,1.2635358572006226
1783080689979436800,8.057436767578125,0.23888537287712097,-0.2889527678489685,1.5804517269134521
1783080689999285800,8.07728564453125,0.3303648829460144,-0.7117292881011963,1.4094769954681396
1783080690019134700,8.097134765625,0.14727269113063812,-0.5099949836730957,0.5021386742591858
