time,seconds_elapsed,z,y,x
1783080079991486500,0.108486572265625,-0.2713470458984375,0.005068600177764893,-0.06749409437179565
1783080080011330600,0.12833056640625,-0.1244363784790039,0.015877068042755127,-0.012475460767745972
1783080080031192600,0.148192626953125,0.08647918701171875,-0.049970030784606934,0.01470261812210083
1783080080050828000,0.167828125,0.16376781463623047,-0.17331862449645996,0.038679420948028564
1783080080070831600,0.18783154296875,0.2210063934326172,-0.10386323928833008,-0.009670615196228027
1783080080090527500,0.207527587890625,0.10546302795410156,-0.06159263849258423,-0.011497467756271362
1783080080110531000,0.227531005859375,-0.041011810302734375,-0.07913273572921753,0.01392856240272522
1783080080130380500,0.247380615234375,-0.04877662658691406,-0.0008792281150817871,0.01169729232788086
1783080080150076200,0.267076171875,-0.028812408447265625,-0.025571346282958984,0.04171884059906006
1783080080169926000,0.28692578125,-0.06273174285888672,-0.014100909233093262,0.08599749207496643
1783080080189929500,0.306929443359375,-0.09548568725585938,0.010102391242980957,0.014985769987106323
1783080080209779200,0.326779296875,-0.12712574005126953,0.01114344596862793,-0.04863005876541138
1783080080229628700,0.346628662109375,-0.1437082290649414,0.035555899143218994,-0.03168529272079468
1783080080249478400,0.366478515625,-0.15724563598632812,0.00997227430343628,0.010166019201278687
1783080080269328100,0.386328125,-0.0665445327758789,0.04731929302215576,-0.034822553396224976
1783080080289177900,0.406177734375,0.013449668884277344,0.049887657165527344,-0.0877695381641388
1783080080309027600,0.426027587890625,0.13208580017089844,-0.0171242356300354,-0.08260029554367065
1783080080328877000,0.445876953125,0.29104137420654297,0.015338659286499023,-0.050990164279937744
1783080080348726800,0.465726806640625,0.2742786407470703,0.01290595531463623,0.02125731110572815
1783080080368576300,0.485576171875,0.1615467071533203,0.047553062438964844,-0.033159345388412476
1783080080388426000,0.505426025390625,-0.014131546020507812,0.04202675819396973,0.004416614770889282
1783080080408275700,0.525275634765625,-0.08692646026611328,0.06492346525192261,-0.00006455183029174805
1783080080428125200,0.545125244140625,-0.08609199523925781,0.06136059761047363,-0.004113972187042236
1783080080447975000,0.564974853515625,-0.11571311950683594,-0.012485682964324951,0.004553079605102539
1783080080467824400,0.584824462890625,-0.019536972045898438,0.034059882164001465,-0.0735919177532196
1783080080487674000,0.604674072265625,-0.0331268310546875,-0.009901762008666992,-0.012776970863342285
1783080080507523600,0.624523681640625,0.011652946472167969,-0.07359594106674194,-0.0270862877368927
1783080080527373300,0.644373291015625,0.04583930969238281,-0.05307459831237793,-0.06170240044593811
1783080080547222800,0.664222900390625,0.0144500732421875,-0.06414031982421875,-0.01592007279396057
1783080080567072500,0.684072509765625,-0.017930984497070312,-0.06330293416976929,0.0025568902492523193
1783080080586922000,0.703921875,-0.037700653076171875,-0.017642557621002197,-0.04364734888076782
1783080080606771700,0.723771728515625,-0.11956787109375,-0.021669447422027588,-0.0495571494102478
1783080080626621200,0.74362109375,-0.0902242660522461,-0.028567075729370117,0.03316149115562439
1783080080646471000,0.763470947265625,0.0002651214599609375,0.01912546157836914,0.03885596990585327
1783080080666320400,0.7833203125,0.09234619140625,-0.045365869998931885,0.05831873416900635
1783080080686170000,0.803170166015625,0.12152099609375,-0.049274981021881104,0.02638828754425049
1783080080706019800,0.823019775390625,0.11330032348632812,-0.049932897090911865,0.02784600853919983
1783080080725869300,0.842869384765625,0.06383037567138672,0.015066564083099365,-0.031489282846450806
1783080080745719000,0.862718994140625,-0.04651641845703125,0.02359461784362793,0.026060670614242554
1783080080765568500,0.882568603515625,-0.09078216552734375,0.0007454752922058105,0.05825445055961609
1783080080785418000,0.90241796875,-0.09907054901123047,0.04271113872528076,0.057693302631378174
1783080080805267700,0.922267822265625,-0.13271808624267578,0.02893620729446411,0.049013108015060425
1783080080825117400,0.942117431640625,-0.11216068267822266,0.017522990703582764,0.01898902654647827
1783080080844967000,0.961966796875,-0.02540302276611328,0.037425339221954346,-0.04273250699043274
1783080080864816600,0.981816650390625,0.0974884033203125,-0.0032079219818115234,-0.052737921476364136
1783080080884666000,1.001666015625,0.08441162109375,-0.046488821506500244,0.006880998611450195
1783080080904515800,1.021515869140625,0.12304973602294922,-0.00965815782546997,-0.004272967576980591
1783080080924365300,1.041365234375,0.14676284790039062,0.03543514013290405,-0.02939140796661377
1783080080944215000,1.061215087890625,0.07958793640136719,0.03528296947479248,0.0321936309337616
1783080080964064500,1.081064453125,0.02405261993408203,0.02244389057159424,0.050200968980789185
1783080080983914200,1.100914306640625,-0.013463020324707031,0.031106650829315186,0.043136805295944214
1783080081003763700,1.120763671875,-0.07306194305419922,0.028642594814300537,0.01959550380706787
1783080081023459300,1.140459228515625,-0.01754283905029297,0.06021755933761597,0.051542729139328
1783080081043308800,1.160308837890625,-0.03789520263671875,0.027046382427215576,0.0582251250743866
1783080081063312100,1.18031201171875,-0.03408336639404297,0.01840353012084961,-0.014364838600158691
1783080081083008000,1.200008056640625,-0.04199695587158203,0.041789710521698,-0.13979417085647583
1783080081102857500,1.219857421875,-0.02222442626953125,0.0054291486740112305,-0.10736978054046631
1783080081122860800,1.23986083984375,0.04065132141113281,-0.006589353084564209,-0.013400465250015259
1783080081142556400,1.259556396484375,0.018518447875976562,-0.021119534969329834,0.04677313566207886
1783080081162560000,1.27956005859375,-0.00010585784912109375,-0.01185840368270874,-0.05408209562301636
1783080081182255900,1.299255859375,-0.015941619873046875,0.004158735275268555,-0.11822167038917542
1783080081202105000,1.31910498046875,-0.06184673309326172,-0.018411457538604736,-0.08911094069480896
1783080081221954800,1.338954833984375,0.0070590972900390625,-0.04512929916381836,-0.0036101043224334717
1783080081241804300,1.35880419921875,0.07603836059570312,-0.012164592742919922,0.06832015514373779
1783080081261807900,1.378807861328125,0.07822799682617188,-0.05378204584121704,0.031084269285202026
1783080081281503500,1.39850341796875,-0.007411956787109375,-0.029313504695892334,-0.03814810514450073
1783080081301353200,1.418353271484375,-0.03683280944824219,-0.0032341480255126953,0.003007739782333374
1783080081321202700,1.43820263671875,-0.02372264862060547,0.0171583890914917,0.07816624641418457
1783080081341052200,1.45805224609375,-0.029651641845703125,0.019280076026916504,0.09449073672294617
1783080081361055700,1.4780556640625,-0.04017353057861328,0.00855863094329834,-0.007937699556350708
1783080081380751600,1.497751708984375,-0.12455558776855469,0.014195024967193604,-0.0355629026889801
1783080081400601000,1.51760107421875,-0.051177978515625,0.022570371627807617,0.013739675283432007
1783080081420450600,1.537450439453125,-0.008213043212890625,0.034932851791381836,0.031714558601379395
1783080081440300000,1.557300048828125,0.1096658706665039,0.02966749668121338,-0.02772006392478943
1783080081460304000,1.577303955078125,0.12413215637207031,-0.028574883937835693,-0.03730994462966919
1783080081479999500,1.59699951171875,0.10596275329589844,-0.014988958835601807,0.0056626200675964355
1783080081499849200,1.61684912109375,0.13034820556640625,0.022075772285461426,0.05274137854576111
1783080081519852800,1.636852783203125,0.0985260009765625,0.03630948066711426,0.05299058556556702
1783080081539548400,1.65654833984375,-0.024538040161132812,-0.003301084041595459,0.04767674207687378
1783080081559552000,1.676552001953125,-0.11800861358642578,0.03608095645904541,0.06684011220932007
1783080081579247600,1.69624755859375,-0.1854095458984375,0.006984591484069824,0.10908472537994385
1783080081599097300,1.716097412109375,-0.14227008819580078,0.02186042070388794,0.02676519751548767
1783080081618946800,1.73594677734375,-0.11259078979492188,-0.0025513768196105957,-0.06763675808906555
1783080081638796300,1.75579638671875,-0.040047645568847656,-0.019111275672912598,-0.0651811957359314
1783080081658799900,1.7757998046875,0.01849651336669922,-0.0185430645942688,0.007321566343307495
1783080081678649900,1.79564990234375,0.09363079071044922,-0.00611501932144165,-0.007172077894210815
1783080081698345500,1.815345458984375,0.13180160522460938,-0.021336615085601807,-0.04027855396270752
1783080081718195000,1.83519482421875,0.07425975799560547,-0.015536606311798096,-0.03340741991996765
1783080081738044400,1.85504443359375,-0.0066318511962890625,0.04913687705993652,-0.04822024703025818
1783080081757894000,1.874893798828125,-0.03866291046142578,0.06039470434188843,-0.0667237937450409
1783080081777743600,1.89474365234375,-0.007386207580566406,0.04343217611312866,-0.034499555826187134
1783080081797747200,1.914747314453125,-0.011902809143066406,0.03355437517166138,0.012885063886642456
1783080081817442800,1.93444287109375,0.10406780242919922,0.057150065898895264,-0.005075365304946899
1783080081837292500,1.95429248046875,0.0887451171875,0.04770630598068237,-0.03545159101486206
1783080081857142000,1.97414208984375,0.0763702392578125,0.02144843339920044,-0.0027880072593688965
1783080081877145600,1.9941455078125,0.07862186431884766,0.035602033138275146,0.009050846099853516
1783080081896841200,2.01384130859375,0.03482341766357422,0.03389984369277954,-0.009860187768936157
1783080081916845000,2.033844970703125,-0.060588836669921875,0.05884683132171631,-0.03950774669647217
1783080081936694800,2.05369482421875,-0.1273021697998047,0.03271639347076416,-0.03277552127838135
1783080081956544500,2.07354443359375,-0.1941061019897461,0.035392940044403076,-0.04023638367652893
1783080081976240000,2.093240234375,-0.1800670623779297,0.0004635453224182129,-0.011646389961242676
1783080081996051200,2.11305126953125,-0.1273822784423828,-0.032518982887268066,-0.054157793521881104
1783080082016093200,2.13309326171875,-0.03293609619140625,-0.0255587100982666,-0.1255646049976349
1783080082035943000,2.15294287109375,0.11789703369140625,-0.06702303886413574,-0.1312568187713623
1783080082055638500,2.172638427734375,0.20328998565673828,-0.10373950004577637,-0.06818497180938721
1783080082095491600,2.21249169921875,0.22147083282470703,-0.09815597534179688,0.08156415820121765
1783080082115341300,2.23234130859375,0.055660247802734375,-0.06200176477432251,0.07134637236595154
1783080082135191000,2.25219091796875,-0.10208702087402344,-0.07698053121566772,0.04389512538909912
1783080082154848300,2.27184814453125,-0.1694488525390625,-0.026844799518585205,0.01775604486465454
1783080082174697500,2.291697509765625,-0.21893596649169922,-0.06375783681869507,0.13572394847869873
1783080082194585300,2.31158544921875,-0.19556713104248047,-0.013523101806640625,0.1122078001499176
1783080082214589200,2.331589111328125,-0.1547842025756836,-0.009396135807037354,0.0981520414352417
1783080082234438700,2.351438720703125,-0.057816505432128906,-0.02489680051803589,0.10379114747047424
1783080082254096100,2.37109619140625,-0.015034675598144531,-0.03774130344390869,0.1256408542394638
1783080082273945300,2.3909453125,0.005864143371582031,-0.06453967094421387,0.09818008542060852
1783080082293794800,2.410794921875,0.08183574676513672,-0.02140861749649048,-0.022179394960403442
1783080082313837000,2.430837158203125,0.0396728515625,-0.03395146131515503,-0.062198519706726074
1783080082333494300,2.450494384765625,-0.06095409393310547,-0.03780949115753174,-0.06310063600540161
1783080082353536300,2.470536376953125,-0.09328842163085938,-0.011836767196655273,-0.03319936990737915
1783080082373193500,2.490193359375,-0.05791187286376953,0.0408596396446228,-0.07729634642601013
1783080082393081300,2.510081298828125,0.03809547424316406,0.026582658290863037,-0.08819061517715454
1783080082413085000,2.5300849609375,0.0960073471069336,0.027726829051971436,-0.02177080512046814
1783080082432780800,2.54978076171875,0.11091995239257812,0.008682012557983398,0.03607770800590515
1783080082452630300,2.56963037109375,0.1351299285888672,0.06004065275192261,0.047461092472076416
1783080082472633900,2.5896337890625,0.04766273498535156,0.053667426109313965,0.027875155210494995
1783080082492291000,2.609291015625,-0.039185523986816406,0.07594317197799683,-0.003406226634979248
1783080082512333000,2.6293330078125,-0.05387687683105469,0.08202308416366577,0.0687878429889679
1783080082531990300,2.648990234375,-0.10518264770507812,0.0361211895942688,0.10444244742393494
1783080082551839700,2.66883984375,-0.06218433380126953,0.00054931640625,0.013227909803390503
1783080082571689200,2.688689208984375,-0.057834625244140625,0.012530803680419922,-0.1105843186378479
1783080082591731500,2.7087314453125,0.0039386749267578125,-0.012991607189178467,-0.13254350423812866
1783080082611581200,2.728581298828125,0.09575366973876953,-0.026631593704223633,-0.11041322350502014
1783080082631238400,2.74823828125,0.1429901123046875,-0.09127271175384521,-0.05846136808395386
1783080082651088000,2.768087890625,0.18435382843017578,-0.048619091510772705,-0.024040907621383667
1783080082670937300,2.787937255859375,0.11850738525390625,-0.0343896746635437,0.07219451665878296
1783080082690786800,2.807786865234375,0.008941650390625,0.012788474559783936,0.109537273645401
1783080082710829000,2.8278291015625,-0.07601165771484375,-0.007217526435852051,0.08257526159286499
1783080082730678800,2.8476787109375,-0.12395572662353516,0.028889119625091553,0.014323770999908447
1783080082750528500,2.867528564453125,-0.16608810424804688,-0.01531529426574707,0.08523869514465332
1783080082770378200,2.887378173828125,-0.04741191864013672,-0.008352220058441162,0.061204373836517334
1783080082790228000,2.90722802734375,0.02093505859375,-0.018356621265411377,-0.0579928457736969
1783080082810077700,2.92707763671875,0.04315662384033203,-0.041121721267700195,-0.04928797483444214
1783080082829927200,2.94692724609375,0.03692436218261719,-0.024728894233703613,-0.024650245904922485
1783080082849777000,2.96677685546875,0.04486083984375,-0.0465320348739624,0.011002779006958008
1783080082869626600,2.986626708984375,0.09880733489990234,-0.02305203676223755,-0.07199734449386597
1783080082889476400,3.006476318359375,0.04241466522216797,-0.013720989227294922,-0.018665820360183716
1783080082909325800,3.026325927734375,-0.03503990173339844,0.01929008960723877,0.018043607473373413
1783080082929175600,3.046175537109375,-0.1054086685180664,0.054390013217926025,0.04470229148864746
1783080082949025000,3.06602490234375,-0.10687923431396484,0.06055349111557007,0.027886807918548584
1783080082968874800,3.085874755859375,-0.013907432556152344,0.022078275680541992,0.08254697918891907
1783080082988724500,3.105724365234375,0.10591316223144531,0.02630680799484253,0.07828855514526367
1783080083008574000,3.125573974609375,0.15273475646972656,-0.014508187770843506,0.12002041935920715
1783080083028423700,3.145423583984375,0.12450408935546875,0.002123534679412842,0.07438048720359802
1783080083048273200,3.165273193359375,0.02598094940185547,0.006459593772888184,0.10050612688064575
1783080083068123000,3.185122802734375,0.007171630859375,0.028182506561279297,0.11835803091526031
1783080083087972400,3.204972412109375,-0.07596969604492188,0.005682647228240967,0.10517701506614685
1783080083107822000,3.224822021484375,-0.06854629516601562,0.02159196138381958,0.02326306700706482
1783080083127671600,3.244671630859375,-0.06397533416748047,0.04830145835876465,-0.05123722553253174
1783080083147521300,3.264521240234375,-0.11518383026123047,0.02289438247680664,-0.014988213777542114
1783080083167371000,3.28437109375,-0.08604240417480469,0.031040489673614502,-0.04315674304962158
1783080083187220500,3.304220458984375,0.027425765991210938,0.0004837512969970703,-0.15746772289276123
1783080083207070200,3.3240703125,0.06065177917480469,-0.030254065990447998,-0.17592066526412964
1783080083226919700,3.343919677734375,0.17409610748291016,-0.016674280166625977,-0.10203325748443604
1783080083246769400,3.363769287109375,0.11519622802734375,0.0227278470993042,-0.009403735399246216
1783080083266619000,3.383618896484375,0.06084728240966797,0.010448336601257324,-0.011815398931503296
1783080083286468600,3.403468505859375,-0.010259628295898438,0.014892339706420898,-0.06654012203216553
1783080083306318000,3.423318115234375,-0.01891803741455078,0.006399095058441162,-0.014465630054473877
1783080083326167800,3.443167724609375,-0.027327537536621094,0.019686877727508545,0.021324634552001953
1783080083346017300,3.463017333984375,-0.042410850524902344,0.011299073696136475,-0.028435468673706055
1783080083365867000,3.482866943359375,-0.05463981628417969,-0.002388596534729004,-0.03478991985321045
1783080083385716500,3.502716552734375,-0.09442996978759766,-0.005764603614807129,-0.008115917444229126
1783080083405566200,3.522566162109375,-0.038100242614746094,-0.030193448066711426,-0.0031041204929351807
1783080083425416000,3.542416015625,0.013746261596679688,-0.0027868151664733887,-0.06279051303863525
1783080083445265400,3.562265380859375,-0.02155017852783203,-0.05711472034454346,-0.002678900957107544
1783080083465115100,3.582115234375,-0.025287628173828125,0.03291749954223633,0.010015875101089478
1783080083484964600,3.601964599609375,-0.0981740951538086,-0.0018227100372314453,0.045655906200408936
1783080083504814300,3.621814453125,-0.08567047119140625,0.01960510015487671,-0.033638834953308105
1783080083524663800,3.641663818359375,-0.03232574462890625,0.014673829078674316,-0.04474031925201416
1783080083544513500,3.661513427734375,0.025943756103515625,-0.019968390464782715,0.0016686618328094482
1783080083564363000,3.681363037109375,0.11243343353271484,-0.009521186351776123,-0.0003687739372253418
1783080083584212700,3.701212646484375,0.09444904327392578,-0.003716886043548584,-0.040156781673431396
1783080083604062200,3.721062255859375,0.1004629135131836,0.017660081386566162,-0.0036369264125823975
1783080083623912000,3.740911865234375,-0.007019996643066406,0.029169678688049316,0.07261008024215698
1783080083643761700,3.76076171875,0.021205902099609375,-0.0019502043724060059,0.05602389574050903
1783080083663611100,3.780611083984375,0.03916645050048828,0.012485921382904053,-0.06277114152908325
1783080083683460900,3.8004609375,-0.022286415100097656,0.03259009122848511,-0.052764564752578735
1783080083703156500,3.820156494140625,-0.13016033172607422,0.03246021270751953,0.0019700229167938232
1783080083723005700,3.840005615234375,-0.023795127868652344,0.051585376262664795,-0.02403080463409424
1783080083742855200,3.859855224609375,0.015997886657714844,0.046611130237579346,-0.07652974128723145
1783080083762858800,3.879858642578125,-0.019565582275390625,0.004783213138580322,-0.010774016380310059
1783080083782708500,3.89970849609375,0.07131481170654297,0.028511643409729004,-0.0030885934829711914
1783080083802404000,3.919404052734375,0.08979606628417969,0.06587272882461548,-0.003966569900512695
1783080083822407700,3.93940771484375,0.11683940887451172,0.024241507053375244,-0.00011906027793884277
1783080083842103300,3.959103271484375,0.053131103515625,-0.018847942352294922,0.02384445071220398
1783080083862106600,3.979106689453125,-0.0035161972045898438,-0.00061798095703125,-0.0069904625415802
1783080083881956600,3.99895654296875,-0.09541988372802734,0.0050778985023498535,0.01246112585067749
1783080083901652200,4.01865234375,-0.10588932037353516,-0.02387148141860962,0.038493603467941284
1783080083921501700,4.038501708984375,-0.09075927734375,-0.01774221658706665,0.011915206909179688
1783080083941351200,4.05835107421875,-0.0762481689453125,-0.029029667377471924,-0.01497998833656311
1783080083961354800,4.078354736328125,-0.048544883728027344,-0.038335978984832764,-0.050886332988739014
1783080083981050400,4.09805029296875,0.0845794677734375,-0.06100863218307495,-0.0006623566150665283
1783080084000899800,4.11789990234375,0.05353736877441406,-0.0317990779876709,-0.0014937222003936768
1783080084020749600,4.13774951171875,0.044999122619628906,-0.09138220548629761,0.030876606702804565
1783080084040753200,4.157753173828125,-0.016223907470703125,0.011231541633605957,-0.0882750153541565
1783080084060603000,4.177602783203125,-0.0915517807006836,-0.032977938652038574,-0.048718154430389404
1783080084080452600,4.19745263671875,-0.07693195343017578,0.021843135356903076,-0.08054319024085999
1783080084100148200,4.217148193359375,-0.09093475341796875,-0.03083568811416626,-0.046884685754776
1783080084119997700,4.236997802734375,-0.05132579803466797,-0.013185858726501465,-0.02859443426132202
1783080084140001300,4.257001220703125,0.04948902130126953,0.0029516220092773438,-0.01629158854484558
1783080084159851000,4.27685107421875,-0.005684852600097656,-0.02512425184249878,-0.017920255661010742
1783080084179546600,4.296546630859375,0.012919425964355469,-0.013316512107849121,-0.005001932382583618
1783080084199550200,4.31655029296875,-0.015333175659179688,0.0006527900695800781,0.04174944758415222
1783080084219245800,4.336245849609375,0.028850555419921875,0.03368741273880005,0.037061721086502075
1783080084239249400,4.35624951171875,0.015798568725585938,0.011782586574554443,0.04724198579788208
1783080084259099100,4.37609912109375,0.06805706024169922,0.007474362850189209,-0.004564911127090454
1783080084278794800,4.395794677734375,0.08187580108642578,-0.019450902938842773,0.0006449222564697266
1783080084298644200,4.415644287109375,0.03060150146484375,0.013858556747436523,-0.027350634336471558
1783080084318493700,4.43549365234375,0.06436443328857422,0.002978205680847168,-0.04276129603385925
1783080084338497300,4.455497314453125,0.0019578933715820312,0.039177775382995605,-0.021966218948364258
1783080084358347000,4.475346923828125,-0.02582073211669922,0.03348153829574585,0.06418469548225403
1783080084378043000,4.49504296875,0.04453086853027344,0.07324916124343872,0.034032851457595825
1783080084397892400,4.514892333984375,0.03364849090576172,0.0695534348487854,0.01221001148223877
1783080084417741800,4.534741943359375,0.01854705810546875,0.03566277027130127,0.06662154197692871
1783080084437745400,4.554745361328125,-0.025857925415039062,0.04066234827041626,0.14301887154579163
1783080084457441000,4.57444091796875,0.02617168426513672,0.05560779571533203,0.0861198902130127
1783080084477444600,4.594444580078125,0.013704299926757812,0.046299636363983154,-0.034117817878723145
1783080084497294300,4.61429443359375,0.013200759887695312,0.011376619338989258,-0.013106971979141235
1783080084517144000,4.63414404296875,-0.0033388137817382812,0.03173351287841797,0.0020141005516052246
1783080084536993800,4.653993896484375,0.03860950469970703,0.0069999098777771,0.01573929190635681
1783080084556651000,4.673651123046875,0.039562225341796875,0.012614548206329346,-0.060924798250198364
1783080084576539000,4.693538818359375,0.054192543029785156,-0.02852463722229004,-0.04866647720336914
1783080084596388400,4.713388427734375,0.07777976989746094,-0.04533684253692627,-0.01978832483291626
1783080084616392000,4.733391845703125,0.045345306396484375,-0.028332948684692383,-0.0011996030807495117
1783080084636241700,4.75324169921875,0.0026693344116210938,-0.025724411010742188,0.006136178970336914
1783080084655937500,4.7729375,-0.047936439514160156,-0.0008469820022583008,0.010852396488189697
1783080084675786800,4.792786865234375,-0.09230899810791016,-0.026003122329711914,0.022955358028411865
1783080084695636500,4.812636474609375,-0.06375503540039062,0.0037038326263427734,0.024793893098831177
1783080084715640000,4.83264013671875,-0.047943115234375,-0.03124767541885376,0.04994836449623108
1783080084735489800,4.85248974609375,-0.01646137237548828,-0.05390584468841553,0.06387573480606079
1783080084755339500,4.872339599609375,0.018756866455078125,-0.06409400701522827,-0.0031917989253997803
1783080084774996700,4.891996826171875,0.004357337951660156,-0.07594180107116699,-0.011500567197799683
1783080084794846000,4.911845947265625,-0.0071620941162109375,-0.07416611909866333,-0.015800178050994873
1783080084814888200,4.93188818359375,-0.0460357666015625,-0.0746036171913147,-0.004578828811645508
1783080084834738000,4.951738037109375,-0.055930137634277344,-0.05667746067047119,-0.015555322170257568
1783080084854395100,4.97139501953125,-0.12790870666503906,-0.0427476167678833,0.013244330883026123
1783080084874436900,4.991436767578125,-0.155670166015625,-0.03658992052078247,0.038594722747802734
1783080084894094300,5.01109423828125,-0.13884449005126953,0.017298519611358643,-0.02191963791847229
1783080084914136300,5.03113623046875,-0.08832454681396484,0.028589487075805664,-0.023667752742767334
1783080084933985800,5.05098583984375,0.05273723602294922,-0.011203885078430176,-0.0660124123096466
1783080084953681700,5.070681640625,0.1497964859008789,-0.01977407932281494,-0.0692489743232727
1783080084973531100,5.09053125,0.1793508529663086,0.03352409601211548,0.030573278665542603
1783080084993380600,5.110380615234375,0.055934906005859375,0.044848501682281494,0.15202978253364563
1783080085013384200,5.13038427734375,-0.005108833312988281,0.06026977300643921,0.08471764624118805
1783080085033156900,5.150156982421875,-0.06909942626953125,0.05393075942993164,-0.03214326500892639
1783080085052929500,5.169929443359375,-0.09919071197509766,0.029335379600524902,-0.05551519989967346
1783080085072779000,5.189779052734375,-0.05469703674316406,0.011401116847991943,-0.027328014373779297
1783080085092628500,5.20962841796875,0.07150745391845703,-0.03537231683731079,-0.030553072690963745
1783080085112632300,5.22963232421875,0.1357555389404297,-0.03090888261795044,-0.0842948853969574
1783080085132328000,5.249327880859375,0.12654685974121094,-0.06596773862838745,-0.023448675870895386
1783080085152177400,5.269177490234375,0.07180404663085938,-0.05044001340866089,0.04175880551338196
1783080085172181000,5.289180908203125,-0.008427619934082031,-0.040382444858551025,0.02349713444709778
1783080085191876900,5.308876953125,-0.15986919403076172,-0.0068492889404296875,-0.0410957932472229
1783080085211880400,5.32888037109375,-0.2369823455810547,0.010859549045562744,-0.008525162935256958
1783080085231576000,5.348576171875,-0.27518749237060547,0.021326184272766113,-0.01817077398300171
1783080085251579600,5.36857958984375,-0.18093585968017578,0.020419776439666748,0.00031828880310058594
1783080085271275300,5.388275146484375,-0.06246662139892578,0.02806633710861206,0.04333963990211487
1783080085291124700,5.408124755859375,0.10541152954101562,-0.026230037212371826,0.07601416110992432
1783080085311128300,5.42812841796875,0.20554161071777344,-0.027923524379730225,0.013267338275909424
1783080085330824200,5.44782421875,0.13618946075439453,-0.02751481533050537,-0.04186704754829407
1783080085350673700,5.467673583984375,0.11795902252197266,0.010358870029449463,-0.05083519220352173
1783080085370523100,5.487523193359375,0.07706832885742188,0.03534555435180664,0.0013951659202575684
1783080085390526700,5.507526611328125,0.03745841979980469,0.003983199596405029,0.019347399473190308
1783080085410376400,5.52737646484375,0.03859901428222656,0.031132817268371582,0.024634361267089844
1783080085430226400,5.547226318359375,-0.0019197463989257812,0.025546789169311523,0.025048673152923584
1783080085450076000,5.567075927734375,-0.052550315856933594,0.04297327995300293,0.039593398571014404
1783080085469925600,5.586925537109375,-0.050652503967285156,0.049279630184173584,0.02583947777748108
1783080085489775400,5.606775390625,-0.11130619049072266,0.004625499248504639,0.045471757650375366
1783080085509625000,5.626625,-0.09610748291015625,0.04170960187911987,0.01869940757751465
1783080085529474600,5.646474609375,-0.010214805603027344,0.016286134719848633,-0.019336700439453125
1783080085549324300,5.66632421875,0.127960205078125,0.022666513919830322,-0.02329498529434204
1783080085569174000,5.686174072265625,0.14617443084716797,-0.0008060932159423828,0.07503828406333923
1783080085589023500,5.7060234375,0.14141082763671875,0.005828142166137695,0.11691489815711975
1783080085608873200,5.725873291015625,0.01694965362548828,0.013348817825317383,0.04592692852020264
1783080085628722700,5.74572265625,-0.03162193298339844,0.0037488341331481934,-0.04988977313041687
1783080085648572400,5.765572509765625,-0.09520626068115234,0.024292409420013428,-0.06418785452842712
1783080085668422100,5.785422119140625,-0.09685993194580078,0.0015946626663208008,0.017554640769958496
1783080085688271600,5.805271728515625,-0.0985269546508789,-0.0002219080924987793,0.009535282850265503
1783080085708121300,5.825121337890625,-0.023888587951660156,0.014590620994567871,-0.10090932250022888
1783080085727970800,5.844970703125,0.027284622192382812,-0.007870078086853027,-0.07985150814056396
1783080085747820500,5.864820556640625,0.056052207946777344,-0.04867285490036011,-0.03822129964828491
1783080085767670300,5.884670166015625,0.09809589385986328,-0.021496176719665527,-0.015834718942642212
1783080085787519700,5.904519775390625,0.027823448181152344,-0.007637739181518555,-0.061820775270462036
1783080085807369500,5.924369384765625,-0.030773162841796875,0.004827439785003662,-0.09184101223945618
1783080085827219000,5.944218994140625,-0.027405738830566406,0.04397761821746826,-0.08111459016799927
1783080085847068700,5.964068603515625,-0.04044914245605469,0.006228208541870117,-0.00738176703453064
1783080085866918100,5.983918212890625,-0.01608562469482422,0.026532351970672607,-0.007366657257080078
1783080085886767900,6.003767822265625,0.009748458862304688,0.022117137908935547,-0.02424052357673645
1783080085906617600,6.02361767578125,0.041573524475097656,0.02588719129562378,-0.011278152465820312
1783080085926467000,6.043467041015625,0.09079360961914062,0.025514960289001465,0.0051978230476379395
1783080085946316800,6.06331689453125,0.07371330261230469,-0.003907918930053711,0.02988910675048828
1783080085966166300,6.083166259765625,0.04593944549560547,-0.017413854598999023,0.012537747621536255
1783080085986016000,6.10301611328125,0.01922130584716797,0.020231425762176514,-0.00024887919425964355
1783080086005865500,6.122865478515625,-0.036728858947753906,0.0142289400100708,0.04993501305580139
1783080086025715200,6.142715087890625,-0.02380657196044922,0.002045571804046631,0.06847023963928223
1783080086045564700,6.162564697265625,-0.06693267822265625,-0.009967684745788574,0.03931555151939392
1783080086065414400,6.182414306640625,-0.1039133071899414,-0.0312764048576355,0.016494423151016235
1783080086085264000,6.202263916015625,-0.093505859375,0.002455592155456543,-0.03293651342391968
1783080086105113600,6.222113525390625,-0.032851219177246094,0.003892242908477783,-0.06222492456436157
1783080086124963300,6.24196337890625,0.034811973571777344,-0.036795079708099365,-0.0659756064414978
1783080086144812800,6.261812744140625,0.06320667266845703,-0.0628160834312439,-0.052619338035583496
1783080086164662500,6.28166259765625,0.13247299194335938,-0.013707220554351807,-0.037477731704711914
1783080086184512000,6.301511962890625,0.17659854888916016,0.0008008480072021484,0.019190460443496704
1783080086204361700,6.32136181640625,0.11086559295654297,-0.018867015838623047,0.08337262272834778
1783080086224211200,6.341211181640625,0.0036096572875976562,-0.004958808422088623,0.05340728163719177
1783080086244061000,6.36106103515625,-0.09554767608642578,0.022981345653533936,0.04448544979095459
1783080086263910400,6.380910400390625,-0.14314651489257812,0.02078014612197876,0.04349219799041748
1783080086283760000,6.400760009765625,-0.07160091400146484,0.04724323749542236,0.046425849199295044
1783080086303609600,6.420609619140625,0.050559043884277344,0.01175147294998169,-0.045288920402526855
1783080086323305500,6.440305419921875,0.07168006896972656,-0.03432971239089966,-0.039215683937072754
1783080086343154700,6.46015478515625,0.060097694396972656,-0.011820375919342041,-0.03098544478416443
1783080086363158300,6.480158203125,0.016824722290039062,-0.021761536598205566,0.013445913791656494
1783080086382854000,6.49985400390625,0.032741546630859375,-0.0004654526710510254,-0.0852939784526825
1783080086402703400,6.519703369140625,-0.010083198547363281,-0.009297966957092285,-0.11857795715332031
1783080086422552800,6.539552734375,-0.042120933532714844,-0.011932969093322754,-0.04772940278053284
1783080086442402300,6.55940234375,-0.04982566833496094,0.009570896625518799,0.04263988137245178
1783080086462406000,6.579406005859375,-0.08278846740722656,0.029790759086608887,-0.0007359981536865234
1783080086482101500,6.5991015625,-0.038466453552246094,-0.005325496196746826,-0.02195027470588684
1783080086501951200,6.618951171875,0.024801254272460938,0.04107034206390381,-0.05650794506072998
1783080086521800700,6.63880078125,0.07215595245361328,-0.020620644092559814,0.016219109296798706
1783080086541804300,6.65880419921875,0.11602497100830078,-0.001644134521484375,0.05778130888938904
1783080086561654000,6.678654052734375,0.1033029556274414,0.0012151598930358887,0.011753678321838379
1783080086581503700,6.698503662109375,0.056405067443847656,-0.0014418363571166992,-0.04369428753852844
1783080086601199600,6.71819970703125,-0.028268814086914062,0.014143407344818115,-0.028458386659622192
1783080086621049000,6.738049072265625,-0.11713981628417969,0.010990321636199951,0.03432077169418335
1783080086640898600,6.757898681640625,-0.14078903198242188,0.03366118669509888,0.03161740303039551
1783080086660902100,6.777902099609375,-0.06663894653320312,0.03267014026641846,0.06721755862236023
1783080086680597800,6.79759765625,-0.006832122802734375,-0.0120810866355896,0.0017604529857635498
1783080086700447200,6.817447265625,-0.13832664489746094,-0.15557175874710083,-0.019319504499435425
1783080086740146700,6.857146728515625,-0.09763336181640625,0.11128932237625122,-0.01610437035560608
1783080086760150300,6.877150390625,-0.35523509979248047,-0.04657542705535889,0.08791521191596985
1783080086779846000,6.896845947265625,-0.16207218170166016,0.046941161155700684,-0.12254083156585693
1783080086799695400,6.9166953125,0.058119773864746094,0.01082831621170044,-0.0077766478061676025
