time,seconds_elapsed,z,y,x
1783080265596202200,0.0992021484375,-0.49335023760795593,-0.6840324401855469,-0.23915168642997742
1783080265615962600,0.118962646484375,-0.6014744639396667,-0.8448871970176697,-0.5809681415557861
1783080265635812600,0.1388125,-0.633965015411377,-0.5062665343284607,-0.7141261100769043
1783080265655508500,0.158508544921875,-0.6243776679039001,-0.030626330524683,-0.5878923535346985
1783080265675358200,0.178358154296875,-0.5881586670875549,0.15832480788230896,-0.2620548605918884
1783080265695208200,0.198208251953125,-0.558331310749054,0.008122635073959827,0.11385004967451096
1783080265715212000,0.2182119140625,-0.5380913019180298,-0.2420811653137207,0.34874069690704346
1783080265735062300,0.238062255859375,-0.5556681752204895,-0.23196116089820862,0.33968594670295715
1783080265754758100,0.257758056640625,-0.621181845664978,-0.06418213248252869,0.1916143000125885
1783080265774762000,0.277761962890625,-0.6792387366294861,0.12423637509346008,0.07017423957586288
1783080265794457900,0.297457763671875,-0.6904240250587463,0.17803218960762024,0.003062632866203785
1783080265814461700,0.317461669921875,-0.6115944981575012,0.16205322742462158,0.012117373757064342
1783080265834312000,0.33731201171875,-0.4917523264884949,0.1093226820230484,0.09520793706178665
1783080265853969400,0.356969482421875,-0.4352933466434479,0.019307903945446014,0.1921469271183014
1783080265873819100,0.376819091796875,-0.46352285146713257,-0.03914843872189522,0.22090904414653778
1783080265893668900,0.3966689453125,-0.49228495359420776,-0.021038956940174103,0.12982900440692902
1783080265913711000,0.416711181640625,-0.4763059914112091,0.05712476372718811,-0.01651158556342125
1783080265933368800,0.436368896484375,-0.41345545649528503,0.026764748618006706,-0.11664637178182602
1783080265953218600,0.456218505859375,-0.30959224700927734,-0.06684529036283493,-0.10439583659172058
1783080265973068300,0.476068359375,-0.2468748539686203,-0.04660528525710106,-0.0005326318205334246
1783080265992918300,0.495918212890625,-0.23142851889133453,-0.0002663159102667123,0.08668582886457443
1783080266012960800,0.515960693359375,-0.22556957602500916,0.013981585390865803,0.14367742836475372
1783080266032618200,0.5356181640625,-0.18668745458126068,0.02090579830110073,0.20759324729442596
1783080266052468000,0.555468017578125,-0.12223900109529495,0.05819002538919449,0.25446486473083496
1783080266072510500,0.575510498046875,-0.05139897018671036,-0.04181159660220146,0.22250694036483765
1783080266092168000,0.59516796875,-0.010918952524662018,-0.1483379602432251,0.1351553201675415
1783080266112210400,0.61521044921875,-0.03328948840498924,-0.0141147430986166,0.06644582003355026
1783080266132060400,0.635060302734375,-0.10253162682056427,0.15033532679080963,0.0366184376180172
1783080266151718100,0.65471826171875,-0.15366427600383759,0.012916321866214275,-0.06817687302827835
1783080266171567900,0.67456787109375,-0.13289164006710052,-0.22237378358840942,-0.2215748429298401
1783080266191417600,0.69441748046875,-0.13555480539798737,-0.14088112115859985,-0.2908169627189636
1783080266211460000,0.714460205078125,-0.11691268533468246,0.2174469381570816,-0.1784316599369049
1783080266231117600,0.73411767578125,-0.05299686640501022,0.3740406930446625,0.05792371183633804
1783080266250967300,0.75396728515625,-0.013049479573965073,0.21531641483306885,0.2342248409986496
1783080266270817000,0.773817138671875,-0.001331579522229731,-0.018908429890871048,0.24594274163246155
1783080266290667000,0.7936669921875,0.02157158963382244,-0.17496955394744873,0.09733846783638
1783080266310709500,0.81370947265625,0.03435475379228592,-0.26818013191223145,-0.1406148076057434
1783080266330367000,0.833366943359375,0.014647374860942364,-0.27776750922203064,-0.3291664719581604
1783080266350217000,0.853217041015625,-0.02157158963382244,-0.2143843024969101,-0.38722333312034607
1783080266370066700,0.873066650390625,-0.0492684431374073,-0.028495801612734795,-0.2956106662750244
1783080266389928000,0.892927978515625,-0.09773793816566467,0.18655429780483246,-0.10279794037342072
1783080266410045700,0.913045654296875,-0.13981585204601288,0.27124276757240295,0.13888375461101532
1783080266429845000,0.932844970703125,-0.15845796465873718,0.18868482112884521,0.294412225484848
1783080266449661700,0.95266162109375,-0.15366427600383759,0.06511423736810684,0.27790066599845886
1783080266469511400,0.972511474609375,-0.1478053331375122,-0.018908429890871048,0.11970899999141693
1783080266489361200,0.992361083984375,-0.11318425834178925,-0.09614004194736481,-0.08575372397899628
1783080266509210600,1.012210693359375,-0.05832318589091301,-0.12277163565158844,-0.2024000883102417
1783080266529060600,1.032060546875,-0.019441060721874237,-0.12064110487699509,-0.19547587633132935
1783080266548902400,1.05190234375,-0.009321057237684727,-0.1483379602432251,-0.11504847556352615
1783080266568665300,1.071665283203125,-0.013049479573965073,-0.21598219871520996,-0.009587372653186321
1783080266588422700,1.091422607421875,-0.027430538088083267,-0.24101589620113373,0.05206476151943207
1783080266608463600,1.111463623046875,-0.010386320762336254,-0.16058848798274994,0.06857634335756302
1783080266628312600,1.1313125,0.0018642114009708166,-0.11797794699668884,0.0648479238152504
1783080266648146400,1.151146484375,-0.02636527456343174,-0.1435442715883255,0.017976323142647743
1783080266667845000,1.17084521484375,-0.05779055133461952,-0.11158636957406998,-0.01970737800002098
1783080266687692800,1.19069287109375,-0.0774979293346405,0.04593949392437935,-0.004261054564267397
1783080266707506400,1.21050634765625,-0.03808317333459854,0.2840259075164795,0.09574057161808014
1783080266727377700,1.230377685546875,0.05832318589091301,0.33782172203063965,0.24541011452674866
1783080266747417600,1.25041748046875,0.1296958476305008,-0.05832318589091301,0.27363958954811096
1783080266767246600,1.27024658203125,0.12383689731359482,-0.48975494503974915,0.12397005409002304
1783080266786906400,1.28990625,-0.024234747514128685,-0.5153213143348694,-0.10546109825372696
1783080266806777600,1.309777587890625,-0.23568958044052124,-0.10306425392627716,-0.2492716908454895
1783080266826817500,1.329817626953125,-0.3165164589881897,0.3399522602558136,-0.20932430028915405
1783080266846646500,1.349646484375,-0.228232741355896,0.40440070629119873,-0.03941475600004196
1783080266866317800,1.36931787109375,-0.08974846452474594,0.034754227846860886,0.13622058928012848
1783080266886290400,1.38929052734375,-0.0141147430986166,-0.40879490971565247,0.21291956305503845
1783080266906215400,1.40921533203125,0.019973693415522575,-0.5380913019180298,0.15646059811115265
1783080266926063900,1.42906396484375,-0.017310533672571182,-0.3736412227153778,-0.008522109128534794
1783080266945893400,1.448893310546875,-0.10679268091917038,-0.10892320424318314,-0.21944430470466614
1783080266965573400,1.468573486328125,-0.1909485012292862,0.12689952552318573,-0.35153698921203613
1783080266985595000,1.488594970703125,-0.2612559199333191,0.2733732759952545,-0.3051980435848236
1783080267005274400,1.5082744140625,-0.3213101327419281,0.25206801295280457,-0.12996216118335724
1783080267025314600,1.528314453125,-0.3266364634037018,0.1663142889738083,0.04247738793492317
1783080267045144000,1.54814404296875,-0.261788547039032,0.12476900219917297,0.12450268864631653
1783080267064808000,1.567807861328125,-0.1856221854686737,0.09281109273433685,0.09733846783638
1783080267084697600,1.587697509765625,-0.10466215014457703,0.011851058341562748,0.02330264262855053
1783080267104564000,1.60756396484375,-0.05779055133461952,0.012916321866214275,-0.017576850950717926
1783080267124565800,1.627565673828125,-0.052464235574007034,0.03262370079755783,-0.04740423336625099
1783080267144394800,1.647394775390625,-0.027963170781731606,0.07789740711450577,-0.05219791829586029
1783080267164054800,1.6670546875,0.0002663159102667123,0.07576687633991241,-0.017576850950717926
1783080267183906300,1.68690625,0.04554001986980438,0.06404897570610046,0.08402267098426819
1783080267203777300,1.70677734375,0.10412952303886414,0.09387636184692383,0.19267955422401428
1783080267223797800,1.7267978515625,0.17923060059547424,0.10399636626243591,0.2107890397310257
1783080267243456800,1.746456787109375,0.27656906843185425,0.0011984215816482902,0.15805849432945251
1783080267263308000,1.76630810546875,0.3777691125869751,-0.13022847473621368,0.08615319430828094
1783080267283159000,1.786158935546875,0.44541335105895996,-0.0492684431374073,0.08402267098426819
1783080267303029200,1.806029296875,0.401204913854599,0.08269108831882477,0.1490037590265274
1783080267323049200,1.82604931640625,0.29095011949539185,-0.09614004194736481,0.12663321197032928
1783080267342708000,1.8457080078125,0.22024326026439667,-0.35393384099006653,-0.061252661049366
1783080267362559000,1.86555908203125,0.17976324260234833,-0.3134538233280182,-0.30839383602142334
1783080267382409500,1.885409423828125,0.16378428041934967,-0.09614004194736481,-0.4463454782962799
1783080267402279700,1.90527978515625,0.18881797790527344,0.04860265180468559,-0.42557281255722046
1783080267422299600,1.925299560546875,0.18775272369384766,0.11677952855825424,-0.2833601236343384
1783080267441958100,1.944958251953125,0.15845796465873718,0.1471395343542099,-0.05326318368315697
1783080267461809000,1.964808837890625,0.18242639303207397,0.0858868807554245,0.14101427793502808
1783080267481659400,1.984659423828125,0.25859275460243225,-0.10412952303886414,0.16711322963237762
1783080267501529600,2.004529541015625,0.3159838318824768,-0.3075948655605316,0.014247900806367397
1783080267521568500,2.024568603515625,0.3032006621360779,-0.3278348743915558,-0.18748639523983002
1783080267541396700,2.044396728515625,0.25007063150405884,-0.15526217222213745,-0.2929475009441376
1783080267561055700,2.0640556640625,0.204264298081398,0.04487423226237297,-0.25246748328208923
1783080267580907000,2.083906982421875,0.19467693567276,0.15885743498802185,-0.0990695208311081
1783080267600777200,2.103777099609375,0.22716747224330902,0.13435637950897217,0.057391077280044556
1783080267620816600,2.123816650390625,0.26818013191223145,0.09600688517093658,0.14154690504074097
1783080267640664300,2.143664306640625,0.29574382305145264,0.04966791719198227,0.12982900440692902
1783080267660512500,2.163512451171875,0.2978743314743042,-0.005592633970081806,0.0366184376180172
1783080267680361000,2.18336083984375,0.2697780132293701,-0.027430538088083267,-0.08042740821838379
1783080267700209700,2.203209716796875,0.24900537729263306,0.019307903945446014,-0.1741705983877182
1783080267720043300,2.223043212890625,0.25007063150405884,0.05446160212159157,-0.211454838514328
1783080267739757000,2.242757080078125,0.2701774835586548,0.043276336044073105,-0.15286533534526825
1783080267759740400,2.262740478515625,0.3021354079246521,0.06191844865679741,-0.005326318088918924
1783080267779420200,2.282420166015625,0.3159838318824768,0.07310371845960617,0.12982900440692902
1783080267799460900,2.3024609375,0.31917962431907654,-0.03169159218668938,0.1825595498085022
1783080267819309600,2.3223095703125,0.3165164589881897,-0.23409168422222137,0.14740586280822754
1783080267839158300,2.342158203125,0.28509119153022766,-0.41784965991973877,0.04034686088562012
1783080267859007500,2.362007568359375,0.23675484955310822,-0.35286858677864075,-0.07456845790147781
1783080267878856700,2.381856689453125,0.16538217663764954,-0.016777902841567993,-0.1033305749297142
1783080267898706200,2.4017060546875,0.11904320865869522,0.2728406488895416,-0.006924213841557503
1783080267918555600,2.4215556640625,0.14194637537002563,0.3170490860939026,0.1585911214351654
1783080267938405400,2.4414052734375,0.19840535521507263,-0.020506324246525764,0.23156169056892395
1783080267958254800,2.4612548828125,0.27656906843185425,-0.4407528340816498,0.1687111258506775
1783080267978104600,2.4811044921875,0.27656906843185425,-0.4785696864128113,0.01850895583629608
1783080267997954300,2.500954345703125,0.1723063886165619,-0.013049479573965073,-0.08096003532409668
1783080268017804000,2.520803955078125,0.08974846452474594,0.5253081321716309,-0.042077913880348206
1783080268037654000,2.540654052734375,0.16325165331363678,0.683366596698761,0.13622058928012848
1783080268057503700,2.560503662109375,0.37563860416412354,0.45127230882644653,0.3620564937591553
1783080268077353700,2.580353759765625,0.624910295009613,-0.1339569091796875,0.5048018097877502
1783080268097203500,2.600203369140625,0.8022766709327698,-0.5892239809036255,0.47710496187210083
1783080268117053400,2.620053466796875,0.8447540402412415,-0.600409209728241,0.3338269889354706
1783080268136903200,2.639903076171875,0.7479482293128967,-0.3400854170322418,0.16125428676605225
1783080268156753200,2.659753173828125,0.591354489326477,-0.012516847811639309,0.04407528415322304
1783080268176603100,2.67960302734375,0.49281758069992065,0.17270587384700775,0.029694223776459694
1783080268196452900,2.699452880859375,0.4565986394882202,0.18548902869224548,0.05579318478703499
1783080268216302800,2.719302734375,0.4629902243614197,0.1748363971710205,0.061119500547647476
1783080268236152800,2.73915283203125,0.47843652963638306,0.16311849653720856,0.03129211813211441
1783080268256002600,2.75900244140625,0.46938177943229675,0.19081534445285797,-0.009587372653186321
1783080268275852500,2.7788525390625,0.46458810567855835,0.10985531657934189,-0.09321057051420212
1783080268295702500,2.79870263671875,0.511992335319519,-0.07483477145433426,-0.1880190372467041
1783080268315552500,2.818552490234375,0.5854955315589905,-0.10679268091917038,-0.23222747445106506
1783080268335402200,2.83840234375,0.6115944981575012,0.039015281945466995,-0.26471802592277527
1783080268355252200,2.858252197265625,0.5929523706436157,0.11518163233995438,-0.297741174697876
1783080268375102200,2.878102294921875,0.533297598361969,0.05712476372718811,-0.2396843135356903
1783080268394952000,2.897951904296875,0.466185986995697,0.12689952552318573,-0.07669898122549057
1783080268414802000,2.917802001953125,0.44541335105895996,0.18655429780483246,0.048868969082832336
1783080268434652000,2.93765185546875,0.47311022877693176,0.10506162792444229,0.102132149040699
1783080268454501600,2.957501708984375,0.5530049800872803,-0.06737792491912842,0.11438268423080444
1783080268474351600,2.9773515625,0.6621944904327393,-0.18935060501098633,0.11491531878709793
1783080268494182400,2.997182373046875,0.7346324324607849,-0.26871275901794434,0.11598058044910431
1783080268513843700,3.01684375,0.7484808564186096,-0.2996053993701935,0.14101427793502808
1783080268533696500,3.036696533203125,0.7346324324607849,-0.10945583879947662,0.2342248409986496
1783080268553568000,3.056568115234375,0.7138597965240479,0.10559425503015518,0.34501224756240845
1783080268573608400,3.0766083984375,0.6680534482002258,0.05339634045958519,0.3791007101535797
1783080268593437700,3.096437744140625,0.6446176767349243,-0.10412952303886414,0.31092381477355957
1783080268613097700,3.11609765625,0.6637924313545227,-0.18349166214466095,0.19481009244918823
1783080268632969200,3.13596923828125,0.7436871528625488,-0.007190529722720385,0.13622058928012848
1783080268653009200,3.156009033203125,0.820785641670227,0.22596904635429382,0.11438268423080444
1783080268672838100,3.175838134765625,0.7916240692138672,0.3170490860939026,0.04620581120252609
1783080268692502000,3.195501953125,0.7165229320526123,0.13968269526958466,-0.029827382415533066
1783080268712407000,3.215406982421875,0.6984134912490845,-0.0679105594754219,-0.08894951641559601
1783080268732393500,3.2353935546875,0.7415566444396973,-0.0727042406797409,-0.16138744354248047
1783080268752106200,3.255106201171875,0.742621898651123,0.07203845679759979,-0.21837905049324036
1783080268772092700,3.2750927734375,0.7367629408836365,0.24887222051620483,-0.20825904607772827
1783080268791786200,3.2947861328125,0.797482967376709,0.3916175365447998,-0.11398320645093918
1783080268811599400,3.314599365234375,0.8399603962898254,0.4336954653263092,0.025433169677853584
1783080268831450600,3.33445068359375,0.8133288025856018,0.4518049359321594,0.16072164475917816
1783080268851321300,3.3543212890625,0.746882975101471,0.466185986995697,0.2715090811252594
1783080268871360800,3.37436083984375,0.6723145246505737,0.378301739692688,0.2992059290409088
1783080268891189200,3.394189208984375,0.6318345069885254,0.15512901544570923,0.24967116117477417
1783080268910848800,3.413848876953125,0.6169208288192749,0.011318426579236984,0.12237215787172318
1783080268930719700,3.4337197265625,0.6456829309463501,-0.052464235574007034,-0.042077913880348206
1783080268950759400,3.453759521484375,0.646215558052063,-0.03435475379228592,-0.1454084813594818
1783080268970588200,3.473588134765625,0.5849629044532776,-0.035952646285295486,-0.21038956940174103
1783080268990267400,3.493267333984375,0.5412870645523071,-0.06578002870082855,-0.2588590681552887
1783080269010288000,3.5132880859375,0.5242428779602051,0.0007989477599039674,-0.22477063536643982
1783080269029948000,3.532947998046875,0.5199818015098572,0.04487423226237297,-0.12410321086645126
1783080269049819000,3.55281884765625,0.5050681233406067,0.04008054360747337,-0.05539371073246002
1783080269069839400,3.57283935546875,0.42304283380508423,0.03848264738917351,-0.0703074038028717
1783080269089498600,3.59249853515625,0.2936132848262787,0.0672447681427002,-0.14327795803546906
1783080269109350000,3.612349853515625,0.2623211741447449,0.11358373612165451,-0.1736379712820053
1783080269129220400,3.632220458984375,0.325571209192276,0.1471395343542099,-0.11717899888753891
1783080269149259800,3.652259765625,0.3964112401008606,0.04913528636097908,-0.04101264849305153
1783080269169088300,3.672088134765625,0.42783650755882263,-0.06737792491912842,0.01850895583629608
1783080269188747800,3.691747802734375,0.3596596419811249,-0.1957421898841858,-0.0015978955198079348
1783080269208599000,3.71159912109375,0.19414429366588593,-0.3789675533771515,-0.11984215676784515
1783080269228461800,3.7314619140625,-0.002929474925622344,-0.2671148478984833,-0.22956430912017822
1783080269248414200,3.751414306640625,-0.10306425392627716,0.03315633162856102,-0.23329274356365204
1783080269268169500,3.77116943359375,0.007723161485046148,0.10985531657934189,-0.11611373722553253
1783080269288189700,3.791189697265625,0.2324937880039215,-0.009321057237684727,0.05206476151943207
1783080269307848700,3.8108486328125,0.3761712312698364,-0.16112112998962402,0.14207953214645386
1783080269327719200,3.83071923828125,0.392682820558548,-0.12809795141220093,0.1442100703716278
1783080269347739600,3.85073974609375,0.3303648829460144,-0.003994738683104515,0.13409006595611572
1783080269367398700,3.870398681640625,0.23089589178562164,0.11092057824134827,0.14261217415332794
1783080269387249700,3.890249755859375,0.1339569091796875,0.07576687633991241,0.1261005848646164
1783080269407120000,3.910119873046875,0.09400951862335205,0.008122635073959827,0.08135951310396194
1783080269427159000,3.930158935546875,0.10839057713747025,0.05392897129058838,0.009454214945435524
1783080269446987500,3.949987548828125,0.1669800728559494,0.14820480346679688,-0.08149266988039017
1783080269466646800,3.969646728515625,0.22610220313072205,0.18176060914993286,-0.17789903283119202
1783080269486498000,3.989498046875,0.25060325860977173,0.146606907248497,-0.24820642173290253
1783080269506368500,4.009368408203125,0.2143843024969101,0.02463422156870365,-0.28975170850753784
1783080269526408000,4.029407958984375,0.16857796907424927,-0.19893798232078552,-0.3153180480003357
1783080269546255600,4.049255615234375,0.19627483189105988,-0.19361166656017303,-0.2540653645992279
1783080269566084600,4.069084716796875,0.21118851006031036,-0.0636495053768158,-0.2077264040708542
1783080269585744600,4.08874462890625,0.19361166656017303,-0.110521100461483,-0.22956430912017822
1783080269605615600,4.10861572265625,0.21012325584888458,-0.13715268671512604,-0.21944430470466614
1783080269625655600,4.128655517578125,0.20852535963058472,-0.03914843872189522,-0.16831165552139282
1783080269645484500,4.148484619140625,0.1765674501657486,-0.04660528525710106,-0.13475584983825684
1783080269665163800,4.168163818359375,0.1813611388206482,-0.07430213689804077,-0.09534109383821487
1783080269685204000,4.188203857421875,0.22929799556732178,0.03262370079755783,-0.008522109128534794
1783080269705052400,4.208052490234375,0.3308975100517273,0.18602167069911957,0.07017423957586288
1783080269724901000,4.227901123046875,0.44488072395324707,0.13009531795978546,0.0978710949420929
1783080269744734500,4.247734375,0.5817670822143555,0.05233107507228851,0.08615319430828094
1783080269764433000,4.267432861328125,0.7697861194610596,-0.007723161485046148,0.08295740932226181
1783080269784284200,4.2872841796875,0.8804404139518738,0.14820480346679688,0.1921469271183014
1783080269804151000,4.307151123046875,0.7846998572349548,0.5327649712562561,0.31678277254104614
1783080269824153000,4.327153076171875,0.5924197435379028,0.6322339773178101,0.3476754128932953
1783080269843982000,4.346982177734375,0.3820301592350006,0.6247771382331848,0.28322696685791016
1783080269863646200,4.366646240234375,0.22983063757419586,0.4768386483192444,0.1261005848646164
1783080269883531800,4.38653173828125,0.1627190262079239,0.01664474420249462,-0.058589499443769455
1783080269903364600,4.406364501953125,0.23622220754623413,-0.31451907753944397,-0.16671375930309296
1783080269923385000,4.426385009765625,0.39321544766426086,-0.1249021589756012,-0.10173267871141434
1783080269943044600,4.446044677734375,0.4161186218261719,0.42304283380508423,0.08668582886457443
1783080269962896000,4.465895751953125,0.3538006842136383,0.6604634523391724,0.25606274604797363
1783080269982747000,4.485746826171875,0.3490070104598999,0.33675646781921387,0.2539322078227997
1783080270002617000,4.5056171875,0.4193144142627716,-0.12703268229961395,0.0834900364279747
1783080270022637600,4.525637451171875,0.5002744197845459,-0.19467693567276,-0.10972215235233307
1783080270042296000,4.545296142578125,0.5956155061721802,0.01771000772714615,-0.22264009714126587
1783080270062146800,4.565146728515625,0.6877608299255371,0.06458161026239395,-0.2732401192188263
1783080270081997600,4.58499755859375,0.6941524147987366,-0.09827057272195816,-0.2833601236343384
1783080270101867800,4.60486767578125,0.5988113284111023,-0.14620743691921234,-0.23755379021167755
1783080270121887700,4.6248876953125,0.4960133731365204,-0.03382211923599243,-0.15126743912696838
1783080270141546200,4.644546142578125,0.3740406930446625,0.06617950648069382,-0.07243792712688446
1783080270161397000,4.66439697265625,0.2882869839668274,0.0954742506146431,-0.050067391246557236
1783080270181267200,4.68426708984375,0.25912538170814514,0.03848264738917351,-0.08522108942270279
1783080270201306400,4.704306396484375,0.22716747224330902,-0.048735812306404114,-0.1129179447889328
1783080270221134600,4.724134521484375,0.19840535521507263,-0.060986343771219254,-0.10759162902832031
1783080270240793900,4.7437939453125,0.16804534196853638,0.012383690103888512,-0.08149266988039017
1783080270260664600,4.76366455078125,0.1392832249403,0.06884266436100006,-0.041545283049345016
1783080270280684800,4.783684814453125,0.15100112557411194,0.027830012142658234,-0.012783164158463478
1783080270300363500,4.803363525390625,0.17923060059547424,-0.01837579719722271,0.00892158318310976
1783080270320403500,4.823403564453125,0.1249021589756012,-0.05938844755291939,0.0003994738799519837
1783080270340251100,4.843251220703125,0.0636495053768158,-0.16591481864452362,-0.037816859781742096
1783080270360080400,4.863080322265625,0.03275685757398605,-0.171773761510849,-0.05965476483106613
1783080270379759900,4.882759765625,-0.0002663159102667123,-0.05033370852470398,-0.05219791829586029
1783080270399800300,4.90280029296875,0.018908429890871048,0.11092057824134827,0.004660528618842363
1783080270419648800,4.922648681640625,0.1249021589756012,0.06937529146671295,0.11917637288570404
1783080270439497500,4.94249755859375,0.2186453640460968,-0.1573926955461502,0.25606274604797363
1783080270459346400,4.962346435546875,0.1296958476305008,-0.3651190996170044,0.2576606571674347
1783080270479195600,4.982195556640625,-0.08974846452474594,-0.39974018931388855,0.09254477918148041
1783080270499045000,5.002045166015625,-0.31811434030532837,-0.10892320424318314,-0.14221268892288208
1783080270518894300,5.021894287109375,-0.3271690905094147,0.3303648829460144,-0.25726115703582764
1783080270538744000,5.041744140625,-0.07643266767263412,0.42251017689704895,-0.1416800618171692
1783080270558593500,5.061593505859375,0.1856221854686737,0.04008054360747337,0.1069258376955986
1783080270578443300,5.081443359375,0.3074617087841034,-0.30972540378570557,0.3274354040622711
1783080270598293000,5.10129296875,0.2468748539686203,-0.3544664680957794,0.4041343927383423
1783080270618142700,5.121142822265625,0.10253162682056427,-0.23568958044052124,0.32530489563941956
1783080270637992400,5.140992431640625,-0.01784316636621952,-0.04394212365150452,0.12982900440692902
1783080270657842400,5.160842529296875,-0.0966726765036583,0.17323850095272064,-0.08894951641559601
1783080270677692200,5.180692138671875,-0.06258423626422882,0.29947224259376526,-0.19654114544391632
1783080270697542100,5.200542236328125,0.026897907257080078,0.2605901062488556,-0.17789903283119202
1783080270717392000,5.220391845703125,0.07856319099664688,0.19134798645973206,-0.10013478249311447
1783080270737241900,5.240241943359375,0.09827057272195816,0.15459638833999634,-0.062317922711372375
1783080270757091600,5.260091552734375,0.12383689731359482,0.04221107065677643,-0.10492847114801407
1783080270776941600,5.279941650390625,0.16325165331363678,-0.03701791167259216,-0.1699095517396927
1783080270796791300,5.299791259765625,0.1904158741235733,-0.00985368900001049,-0.1688442826271057
1783080270816641300,5.319641357421875,0.2191779911518097,0.011851058341562748,-0.10013478249311447
1783080270836491300,5.3394912109375,0.28083011507987976,0.04487423226237297,-0.026631591841578484
1783080270856341000,5.359341064453125,0.3154512047767639,0.11944268643856049,-0.019174745306372643
1783080270876191000,5.37919091796875,0.314918577671051,0.13488900661468506,-0.07723161578178406
1783080270896041000,5.399041015625,0.3159838318824768,0.20945745706558228,-0.1363537460565567
1783080270915891000,5.418890869140625,0.35220280289649963,0.27603644132614136,-0.1592569202184677
1783080270935741000,5.438740966796875,0.3814975321292877,0.20732693374156952,-0.09960214793682098
1783080270955590700,5.458590576171875,0.36019226908683777,0.0070573715493083,0.009986846707761288
1783080270975440600,5.478440673828125,0.3303648829460144,-0.26285380125045776,0.09574057161808014
1783080270995290400,5.498290283203125,0.3016027808189392,-0.3166496157646179,0.10053425282239914
1783080271015140400,5.518140380859375,0.25326642394065857,-0.0540621280670166,0.0318247526884079
1783080271034990300,5.537990234375,0.22290641069412231,0.17164060473442078,-0.027164222672581673
1783080271054840300,5.55784033203125,0.1621863842010498,0.11624689400196075,-0.08149266988039017
1783080271074690000,5.57768994140625,0.08921582996845245,-0.09028109163045883,-0.17044217884540558
1783080271094540000,5.5975400390625,0.06258423626422882,-0.09028109163045883,-0.23755379021167755
1783080271114390000,5.61739013671875,0.09880319982767105,0.03209106624126434,-0.19228008389472961
1783080271134239700,5.63723974609375,0.16911059617996216,0.19241324067115784,-0.03728422895073891
1783080271154089700,5.65708984375,0.17337165772914886,0.25845959782600403,0.11278478801250458
1783080271173939700,5.676939697265625,0.1153147891163826,0.24940484762191772,0.20439745485782623
1783080271193770500,5.6967705078125,0.08495477586984634,0.15566164255142212,0.22623535990715027
1783080271213431800,5.716431884765625,0.09880319982767105,-0.031158961355686188,0.1724395453929901
1783080271233284400,5.736284423828125,0.13981585204601288,-0.23941799998283386,0.04301001876592636
1783080271253156000,5.756156005859375,0.1760348230600357,-0.33955278992652893,-0.10492847114801407
1783080271273177300,5.77617724609375,0.17816534638404846,-0.25433170795440674,-0.17949692904949188
1783080271292837000,5.795837158203125,0.09827057272195816,-0.09720530360937119,-0.17949692904949188
1783080271312688600,5.815688720703125,-0.013582111336290836,0.051265813410282135,-0.1741705983877182
1783080271332559600,5.8355595703125,-0.06631266325712204,0.11997532099485397,-0.17150744795799255
1783080271352599000,5.85559912109375,-0.010918952524662018,0.17696692049503326,-0.12410321086645126
1783080271372447000,5.875447021484375,0.05725792050361633,0.1428784877061844,-0.009587372653186321
1783080271392276200,5.895276123046875,0.03435475379228592,0.0070573715493083,0.07230477035045624
1783080271411936000,5.91493603515625,0.016777902841567993,-0.0636495053768158,0.06644582003355026
1783080271431787800,5.934787841796875,0.028495801612734795,-0.048735812306404114,-0.01225053146481514
1783080271451658500,5.954658447265625,0.05938844755291939,-0.056192658841609955,-0.06018739566206932
1783080271471679200,5.97467919921875,0.07962846010923386,-0.11957584321498871,-0.01597895473241806
1783080271491338200,5.994338134765625,0.052464235574007034,-0.16165375709533691,0.05579318478703499
1783080271511209000,6.014208984375,0.004527370445430279,-0.18828535079956055,0.09946899116039276
1783080271531229400,6.0342294921875,-0.04607265070080757,-0.21012325584888458,0.11864373832941055
1783080271550908200,6.053908203125,-0.08335687965154648,-0.25433170795440674,0.1117195263504982
1783080271570928600,6.0739287109375,-0.11371689289808273,-0.33316120505332947,0.05898897349834442
1783080271590587600,6.093587646484375,-0.16005586087703705,-0.2937464416027069,-0.011717899702489376
1783080271610439000,6.11343896484375,-0.19361166656017303,-0.05193160101771355,-0.01225053146481514
1783080271630309400,6.133309326171875,-0.15686006844043732,0.17803218960762024,0.10905636847019196
1783080271650348800,6.153348876953125,-0.09720530360937119,0.05392897129058838,0.2486059069633484
1783080271670177300,6.17317724609375,-0.14567480981349945,-0.3166496157646179,0.22836589813232422
1783080271689856300,6.192856201171875,-0.3122554123401642,-0.508397102355957,0.03502054139971733
1783080271709877000,6.212876953125,-0.4752407371997833,-0.2761695981025696,-0.22264009714126587
1783080271729536500,6.23253662109375,-0.48429548740386963,0.25206801295280457,-0.37444016337394714
1783080271749407200,6.2524072265625,-0.3021354079246521,0.561926543712616,-0.2743053734302521
1783080271769427700,6.272427734375,-0.0492684431374073,0.45020705461502075,0.0062584239058196545
1783080271789106400,6.2921064453125,0.11424952745437622,-0.05139897018671036,0.2656501233577728
1783080271809127200,6.312127197265625,0.11211899667978287,-0.4530033767223358,0.3689807057380676
1783080271828806100,6.33180615234375,0.015712639316916466,-0.4258391261100769,0.27363958954811096
1783080271848845800,6.351845703125,-0.06578002870082855,-0.0492684431374073,0.048868969082832336
1783080271868694000,6.371694091796875,-0.15206637978553772,0.3527354300022125,-0.17097482085227966
1783080271888527000,6.391527099609375,-0.1723063886165619,0.43103229999542236,-0.23435799777507782
1783080271908221000,6.411220947265625,-0.11318425834178925,0.4251733422279358,-0.14913691580295563
1783080271928054000,6.431053955078125,0.007190529722720385,0.3527354300022125,0.0025300011038780212
1783080271948075000,6.451074951171875,0.10626004636287689,0.16951008141040802,0.13409006595611572
1783080271967734500,6.470734619140625,0.15632744133472443,0.02197106182575226,0.1442100703716278
1783080271987586000,6.4905859375,0.15153375267982483,-0.03169159218668938,0.022237379103899002
1783080272007437300,6.510437255859375,0.15472954511642456,-0.01784316636621952,-0.11664637178182602
1783080272027307800,6.530307861328125,0.1952095627784729,-0.017310533672571182,-0.17576849460601807
1783080272047327700,6.55032763671875,0.2324937880039215,-0.005592633970081806,-0.1464737504720688
1783080272067006500,6.57000634765625,0.2516685426235199,-0.07004108279943466,-0.12516847252845764
1783080272087026700,6.590026611328125,0.2569948434829712,-0.11105373501777649,-0.13528847694396973
1783080272106705400,6.609705322265625,0.20319904386997223,-0.05193160101771355,-0.1603221744298935
1783080272126745000,6.6297451171875,0.10839057713747025,0.08269108831882477,-0.18908429145812988
1783080272146574000,6.649573974609375,0.10466215014457703,0.1279647946357727,-0.17204007506370544
1783080272166233600,6.669233642578125,0.10732531547546387,0.047537390142679214,-0.10066741704940796
1783080272186085000,6.689085205078125,0.0913463607430458,-0.03861580789089203,-0.03941475600004196
1783080272205955800,6.708955810546875,0.09081372618675232,-0.1009337306022644,-0.041545283049345016
1783080272225995300,6.728995361328125,0.1483379602432251,-0.11211899667978287,-0.06338318437337875
1783080272245824000,6.748823974609375,0.2090579867362976,0.04167843982577324,0.009454214945435524
1783080272265483500,6.7684833984375,0.15526217222213745,0.33302804827690125,0.15060164034366608
1783080272285335000,6.7883349609375,0.06737792491912842,0.5375586748123169,0.1777658760547638
1783080272305205800,6.808205810546875,0.04713791608810425,0.28136277198791504,-0.0037284228019416332
1783080272325245200,6.8282451171875,-0.035952646285295486,-0.09507478028535843,-0.2924148738384247
