time,seconds_elapsed,z,y,x
1783080715973332000,0.11033203125,-0.1129179447889328,0.0354200154542923,0.21371851861476898
1783080715993198600,0.130198486328125,-0.026098959147930145,0.2426137924194336,0.18815219402313232
1783080716012966700,0.149966552734375,0.10066741704940796,0.608931303024292,0.14341111481189728
1783080716032657200,0.1696572265625,0.11345057934522629,0.7181208729743958,0.3538006842136383
1783080716052507100,0.189507080078125,-0.08841688185930252,0.17390428483486176,0.8948214650154114
1783080716072318700,0.209318603515625,-0.19534271955490112,-0.15832480788230896,1.3570127487182617
1783080716092207000,0.22920703125,-0.3668501675128937,-0.15779218077659607,0.8777772188186646
1783080716112211200,0.249211181640625,-0.9329046607017517,-0.0624510794878006,0.15779218077659607
1783080716131907600,0.268907470703125,-1.2167973518371582,-0.0002663159102667123,0.27124276757240295
1783080716151757600,0.288757568359375,-0.9515467286109924,-0.9406278133392334,0.6668550372123718
1783080716171569200,0.308569091796875,-0.631568193435669,-1.8761955499649048,0.5354281663894653
1783080716191457500,0.32845751953125,-0.2384859025478363,-2.344778537750244,0.5572660565376282
1783080716211461600,0.348461669921875,0.12516847252845764,-2.812295913696289,0.7904255986213684
1783080716231312100,0.36831201171875,0.05273054912686348,-2.7217485904693604,0.7675224542617798
1783080716251008300,0.38800830078125,-0.14274533092975616,-1.9395787715911865,0.5641902685165405
1783080716270819800,0.40781982421875,-0.2816290855407715,-1.2398337125778198,0.4486091434955597
1783080716290669600,0.427669677734375,-0.35353437066078186,-1.2488884925842285,0.35699647665023804
1783080716310712300,0.44771240234375,-0.46219125390052795,-1.656751275062561,0.4251733422279358
1783080716330370000,0.4673701171875,-0.47710496187210083,-1.9853850603103638,0.8138614296913147
1783080716350258400,0.487258544921875,-0.3322291076183319,-1.9182734489440918,1.4049495458602905
1783080716370262500,0.507262451171875,-0.3226417303085327,-1.6100128889083862,1.7355808019638062
1783080716390112800,0.52711279296875,-0.5442165732383728,-1.44010329246521,1.4800506830215454
1783080716409963000,0.546962890625,-0.9329046607017517,-1.264334797859192,0.9342362284660339
1783080716429813200,0.566813232421875,-1.1976226568222046,-0.8319709300994873,0.5551354885101318
1783080716449663500,0.58666357421875,-1.2604732513427734,-0.1940111368894577,0.4352933466434479
1783080716469513700,0.606513671875,-1.273655891418457,0.3848264813423157,0.4427502155303955
1783080716489363700,0.62636376953125,-1.2434289455413818,0.5041360259056091,0.48323023319244385
1783080716509214000,0.6462138671875,-1.1422289609909058,-0.03795001655817032,0.5141228437423706
1783080716529064000,0.66606396484375,-0.9163930416107178,-0.6050697565078735,0.3404848873615265
1783080716548914200,0.6859140625,-0.5921534299850464,-0.4864259958267212,0.12157320976257324
1783080716568764400,0.705764404296875,-0.35832804441452026,0.1009337306022644,0.24035011231899261
1783080716588614400,0.725614501953125,-0.5974797606468201,0.6206492185592651,0.854341447353363
1783080716608464600,0.745464599609375,-1.4776538610458374,0.5190497040748596,1.43264639377594
1783080716628314600,0.765314697265625,-1.6912392377853394,-0.22383852303028107,-0.0492684431374073
1783080716648164600,0.78516455078125,-0.7661908864974976,-0.3543333113193512,-2.761829137802124
1783080716668014800,0.805014892578125,-0.12037479132413864,0.654737651348114,-3.4466605186462402
1783080716687864800,0.82486474609375,0.04846949502825737,1.2847079038619995,-1.3811143636703491
1783080716707715000,0.844715087890625,0.7902924418449402,0.14727269113063812,0.8607330322265625
1783080716727565000,0.86456494140625,1.9266624450683594,-2.200435161590576,1.6696676015853882
1783080716747415300,0.884415283203125,2.303100109100342,-2.95717191696167,0.2973417043685913
1783080716767265300,0.904265380859375,1.5863107442855835,-1.398025393486023,-2.3023009300231934
1783080716787115500,0.924115478515625,0.5303681492805481,0.5988113284111023,-3.3364057540893555
1783080716806965500,0.943965576171875,-0.16618113219738007,1.123320460319519,-1.7479645013809204
1783080716826815500,0.9638154296875,-0.15393058955669403,0.2474074810743332,0.18868482112884521
1783080716846665700,0.983665771484375,0.21358536183834076,-0.4113249182701111,0.9874994158744812
1783080716886289000,1.023288818359375,0.054861076176166534,-0.22543641924858093,0.7648593187332153
1783080716906216000,1.0432158203125,-0.07456845790147781,0.06897582113742828,0.33728909492492676
1783080716926066200,1.063066162109375,-0.10279794037342072,0.32890015840530396,0.02263685315847397
1783080716945916200,1.082916259765625,-0.12889690697193146,0.39121806621551514,-0.24367906153202057
1783080716965766100,1.10276611328125,0.002663159044459462,0.439687579870224,-0.5902892351150513
1783080716985616400,1.122616455078125,0.23329274356365204,0.5179844498634338,-0.7415566444396973
1783080717005466400,1.14246630859375,0.3657849133014679,0.7351650595664978,-0.4848281145095825
1783080717025316600,1.162316650390625,0.4978775978088379,0.7000113725662231,-0.1813611388206482
1783080717045166600,1.18216650390625,0.6848313808441162,0.39121806621551514,-0.2857569754123688
1783080717065016800,1.202016845703125,0.7205176949501038,0.3230412006378174,-0.8305061459541321
1783080717084866800,1.22186669921875,0.6129260659217834,0.9839041233062744,-1.382179617881775
1783080717104717000,1.241717041015625,0.43875545263290405,1.9610172510147095,-1.6717981100082397
1783080717124567000,1.261567138671875,0.10492847114801407,2.293246269226074,-1.5423686504364014
1783080717144417000,1.2814169921875,0.40573230385780334,1.2937626838684082,-1.7010928392410278
1783080717164267300,1.301267333984375,1.0181257724761963,-0.1982721984386444,-3.02441668510437
1783080717184117200,1.3211171875,1.2162647247314453,0.3235738277435303,-3.994605541229248
1783080717203775200,1.340775146484375,0.9936246871948242,1.4263880252838135,-2.677140712738037
1783080717223625000,1.360625,0.948883593082428,0.8874977827072144,-0.7809714078903198
1783080717243667200,1.380667236328125,1.0799109935760498,0.0492684431374073,-0.45500072836875916
1783080717263517400,1.400517333984375,0.9781783223152161,-0.49281758069992065,-0.7000113725662231
1783080717283378000,1.4203779296875,0.6038713455200195,-1.1136000156402588,-0.9135967493057251
1783080717303225900,1.440225830078125,0.06498108059167862,-1.1072083711624146,-1.3843101263046265
1783080717323115000,1.460114990234375,-0.39721018075942993,-0.4763059914112091,-1.7255939245224
1783080717342919700,1.479919677734375,-0.5197154879570007,0.29694223403930664,-0.9066725373268127
1783080717362750200,1.499750244140625,-0.47976812720298767,0.32463908195495605,0.3596596419811249
1783080717382411500,1.51941162109375,-0.16245271265506744,0.15686006844043732,0.8378298282623291
1783080717402283800,1.53928369140625,0.0942758321762085,0.01784316636621952,0.7238466143608093
1783080717422305300,1.55930517578125,0.19014956057071686,0.0018642114009708166,0.38362807035446167
1783080717441965600,1.578965576171875,0.16777902841567993,0.008255792781710625,0.030626330524683
1783080717461817600,1.598817626953125,0.16138744354248047,0.03275685757398605,-0.04713791608810425
1783080717481688600,1.6186884765625,0.25726115703582764,0.048735812306404114,0.18122798204421997
1783080717501728500,1.638728515625,0.3572627902030945,-0.0858868807554245,0.6286386847496033
1783080717521557500,1.6585576171875,0.35459962487220764,-0.24833959341049194,0.9235835671424866
1783080717541237000,1.678237060546875,0.2950780391693115,-0.10719215124845505,0.8687224984169006
1783080717561258000,1.698258056640625,0.050600022077560425,0.27723485231399536,0.7978824377059937
1783080717580917800,1.717917724609375,-0.16192007064819336,0.5892239809036255,0.7850993275642395
1783080717600789000,1.7377890625,-0.1310274302959442,0.5780386924743652,0.7856319546699524
1783080717620829000,1.757828857421875,-0.11611373722553253,0.7404913902282715,0.9187898635864258
1783080717640658000,1.777657958984375,-0.3668501675128937,1.3709943294525146,1.2504863739013672
1783080717660317700,1.797317626953125,-0.5538039207458496,1.9998993873596191,1.034903645515442
1783080717680169500,1.81716943359375,-0.25073641538619995,1.31453537940979,-0.05033370852470398
1783080717700040400,1.83704052734375,0.4888228476047516,0.2655169665813446,-0.8118640780448914
1783080717720080100,1.857080078125,0.9872331023216248,-0.5226449966430664,-0.1765674501657486
1783080717739928000,1.876927978515625,1.1747194528579712,-1.4507559537887573,0.8111982345581055
1783080717759776500,1.896776611328125,0.982439398765564,-1.4454295635223389,0.6684529185295105
1783080717779625500,1.91662548828125,0.5213133692741394,-0.9273120164871216,-0.2889527678489685
1783080717799474400,1.936474365234375,0.010652636177837849,-1.0040110349655151,-1.0130656957626343
1783080717819323600,1.95632373046875,-0.4600607454776764,-0.9166593551635742,-1.215465784072876
1783080717839173000,1.976173095703125,-0.719452440738678,-0.07416898012161255,-0.8321040868759155
1783080717859022600,1.996022705078125,-0.7215829491615295,0.554070234298706,0.14873743057250977
1783080717878872300,2.015872314453125,-0.4131891429424286,0.5110602378845215,1.0242509841918945
1783080717898722000,2.03572216796875,-0.030360013246536255,0.20213377475738525,1.1600720882415771
1783080717918571800,2.05557177734375,0.2540653645992279,-0.15086796879768372,0.6291713118553162
1783080717938421800,2.075421875,0.4456796646118164,-0.5661876201629639,-0.08175898343324661
1783080717958271700,2.095271728515625,0.5122586488723755,-0.89641934633255,-0.6078660488128662
1783080717978121700,2.115121826171875,0.4446144104003906,-0.917724609375,-0.804939866065979
1783080717997971500,2.134971435546875,0.33609068393707275,-0.4299670457839966,-0.6291713118553162
1783080718017821700,2.15482177734375,0.17097482085227966,-0.06831002980470657,-0.2623211741447449
1783080718037671700,2.174671630859375,-0.0074568456038832664,0.06684529036283493,0.040213704109191895
1783080718057521700,2.194521728515625,-0.11345057934522629,0.1478053331375122,0.07057371735572815
1783080718077371600,2.21437158203125,-0.17736639082431793,0.0913463607430458,0.056725289672613144
1783080718097221600,2.2342216796875,-0.18695376813411713,0.07483477145433426,0.10839057713747025
1783080718117071600,2.254071533203125,-0.26991117000579834,0.21172115206718445,0.30000486969947815
1783080718136921900,2.273921875,-0.37270912528038025,0.37097805738449097,0.40866175293922424
1783080718156771800,2.293771728515625,-0.35832804441452026,0.47484126687049866,0.515720784664154
1783080718176622000,2.3136220703125,-0.23582273721694946,0.6701840162277222,0.5929523706436157
1783080718196472000,2.33347216796875,-0.22144168615341187,0.23355905711650848,-0.4289017617702484
1783080718216322300,2.353322265625,-0.1315600574016571,-0.1705753356218338,-2.4743411540985107
1783080718236172300,2.37317236328125,-0.13209268450737,0.7383608818054199,-2.8182880878448486
1783080718256022300,2.393022216796875,-0.05699160322546959,1.0737857818603516,-0.9853688478469849
1783080718275872500,2.41287255859375,0.12836426496505737,0.138217955827713,0.5684512853622437
1783080718295722500,2.432722412109375,0.1789642870426178,-0.7275750637054443,0.732901394367218
1783080718315572500,2.452572509765625,-0.03515370190143585,-1.288835883140564,0.06258423626422882
1783080718335422700,2.472422607421875,-0.5111933946609497,-0.9225183129310608,-1.1254510879516602
1783080718355272700,2.492272705078125,-0.9563404321670532,0.06950845569372177,-1.9109498262405396
1783080718375123000,2.512123046875,-1.0655299425125122,0.8475503921508789,-1.2676637172698975
1783080718394973000,2.531972900390625,-0.8476835489273071,0.788960874080658,0.17217323184013367
1783080718414823000,2.551822998046875,-0.440885990858078,0.204264298081398,1.076981544494629
1783080718434673200,2.571673095703125,-0.062317922711372375,-0.1652490198612213,0.9912278056144714
1783080718454523100,2.591523193359375,0.005326318088918924,-0.07363634556531906,0.4022701680660248
1783080718474373400,2.611373291015625,-0.1363537460565567,-0.048070020973682404,-0.2191779911518097
1783080718494204200,2.6312041015625,-0.2581932842731476,-0.08002793043851852,-0.649944007396698
1783080718513865700,2.65086572265625,-0.3093259334564209,-0.07097318768501282,-0.7186535000801086
1783080718533718500,2.670718505859375,-0.31145647168159485,-0.11092057824134827,-0.4443480968475342
1783080718553590500,2.690590576171875,-0.32956594228744507,-0.24833959341049194,-0.1387505829334259
1783080718573611800,2.71061181640625,-0.43502703309059143,-0.46405547857284546,0.08548741042613983
1783080718593271800,2.730271728515625,-0.6411555409431458,-0.5645897388458252,0.23395852744579315
1783080718613123600,2.75012353515625,-0.6352965831756592,-0.26218801736831665,0.22330589592456818
1783080718632974800,2.769974853515625,-0.5639239549636841,0.08282424509525299,0.04181159660220146
1783080718652845600,2.789845458984375,-0.5330312848091125,0.0732368752360344,-0.18722008168697357
1783080718672885200,2.80988525390625,-0.3045322299003601,0.3273022472858429,-0.4938828647136688
1783080718692714000,2.8297138671875,-0.10546109825372696,0.7106640338897705,-0.3171822428703308
1783080718712373500,2.84937353515625,-0.2709764242172241,0.5599291920661926,0.325571209192276
1783080718732244700,2.86924462890625,-0.3801659643650055,-0.5576655268669128,0.20093534886837006
1783080718752284400,2.889284423828125,0.10652636736631393,-0.8820382952690125,-0.9582046270370483
1783080718772113400,2.909113525390625,0.5436839461326599,-0.3735080659389496,-1.7437033653259277
1783080718791773200,2.928773193359375,0.33129698038101196,0.26338642835617065,-0.7213166356086731
1783080718811644400,2.94864453125,-0.24487747251987457,-0.12583427131175995,0.7408908605575562
1783080718831665200,2.9686650390625,-0.38282912969589233,-1.3266527652740479,0.9901625514030457
1783080718851344400,2.988344482421875,-0.13741901516914368,-1.8250629901885986,0.028495801612734795
1783080718871365000,3.008365234375,-0.22144168615341187,-0.8484824895858765,-1.0604699850082397
1783080718891044400,3.02804443359375,-0.497344970703125,0.2564622163772583,-1.4865753650665283
1783080718911084300,3.048084228515625,-0.6166545152664185,0.47111284732818604,-1.1962910890579224
1783080718930932500,3.067932373046875,-0.3791007101535797,0.3651190996170044,-0.6691187024116516
1783080718950781200,3.08778125,0.02769685536623001,0.21704746782779694,-0.20266640186309814
1783080718970630100,3.107630126953125,0.3572627902030945,0.06205160543322563,0.1615206003189087
1783080718990460200,3.127460205078125,0.5378249883651733,-0.06458161026239395,0.36072489619255066
1783080719010121000,3.147120849609375,0.5554018020629883,-0.2041311413049698,0.36658385396003723
1783080719029992700,3.16699267578125,0.335025429725647,-0.40706387162208557,0.18761955201625824
1783080719050033200,3.187033203125,0.017576850950717926,-0.3388870060443878,-0.08921582996845245
1783080719069866200,3.2068662109375,-0.1416800618171692,-0.020373167470097542,-0.21651484072208405
1783080719089580000,3.226580078125,-0.29281434416770935,0.27350643277168274,-0.08335687965154648
1783080719109582300,3.246582275390625,-0.4914860129356384,0.3129211962223053,-0.06631266325712204
1783080719129431300,3.266431396484375,-0.5234439373016357,0.15206637978553772,-0.43689125776290894
1783080719149280300,3.2862802734375,-0.2587259113788605,0.3555317521095276,-0.7612640261650085
1783080719169110500,3.306110595703125,0.033555805683135986,0.8486156463623047,-0.4704470634460449
1783080719188771300,3.325771240234375,0.042610544711351395,1.2042804956436157,0.18602167069911957
1783080719208623600,3.34562353515625,-0.1784316599369049,0.9689904451370239,0.6147902607917786
1783080719228495000,3.3654951171875,-0.15659375488758087,0.7516766786575317,0.5056007504463196
1783080719248516000,3.38551611328125,0.2929475009441376,0.0732368752360344,-0.31132328510284424
1783080719268175600,3.405175537109375,0.5660544633865356,-0.6476802825927734,-1.441301703453064
1783080719288027400,3.42502734375,0.43928807973861694,0.48016759753227234,-1.1046783924102783
1783080719307878700,3.444878662109375,0.7263766527175903,1.1073415279388428,0.5881586670875549
1783080719327749000,3.4647490234375,0.8972182869911194,-0.3532680571079254,2.359159469604492
1783080719347769600,3.48476953125,0.7897598147392273,-2.10149884223938,2.7000439167022705
1783080719367448000,3.504447998046875,0.47710496187210083,-1.6626101732254028,1.2824442386627197
1783080719387468500,3.524468505859375,-0.02450106292963028,-0.21478378772735596,-0.25379905104637146
1783080719407127800,3.5441279296875,-0.49627968668937683,0.5471460223197937,-0.6414218544960022
1783080719426998800,3.563998779296875,-0.5751091837882996,0.679771363735199,-0.20639483630657196
1783080719447019300,3.584019287109375,-0.31092381477355957,0.5673860311508179,0.5849629044532776
1783080719466678300,3.60367822265625,-0.010120004415512085,0.3139864504337311,1.2654000520706177
1783080719486529500,3.623529541015625,0.20293273031711578,0.0492684431374073,1.2568778991699219
1783080719506400000,3.64339990234375,0.3609912097454071,-0.1652490198612213,0.4486091434955597
1783080719526439400,3.663439453125,0.39188385009765625,-0.1609879732131958,-0.5940176248550415
1783080719546268200,3.68326806640625,0.23808641731739044,-0.0070573715493083,-1.1323752403259277
1783080719565947100,3.702947021484375,0.08149266988039017,0.22130851447582245,-1.0199899673461914
1783080719585968000,3.722968017578125,0.07190529257059097,0.3086601495742798,-0.5636576414108276
1783080719605647400,3.7426474609375,0.20399798452854156,0.020506324246525764,-0.14620743691921234
1783080719625687300,3.762687255859375,0.36312174797058105,-0.5677855014801025,0.010918952524662018
1783080719645535500,3.782535400390625,0.46219125390052795,-0.8500803709030151,-0.13022847473621368
1783080719665365000,3.802364990234375,0.42490702867507935,-0.4299670457839966,-0.3837612271308899
1783080719685025300,3.822025390625,0.2167811542749405,0.318247526884079,-0.5727123618125916
1783080719704897000,3.84189697265625,0.09161267429590225,0.8390282988548279,-0.6355628967285156
1783080719724937200,3.861937255859375,-0.005326318088918924,0.964729368686676,-0.2665822207927704
1783080719744766200,3.88176611328125,-0.11558110266923904,0.8523440957069397,0.03009369783103466
1783080719764426500,3.901426513671875,0.30732855200767517,0.20799273252487183,-0.2751043438911438
1783080719784297700,3.921297607421875,0.8632630109786987,-0.20732693374156952,-0.40453386306762695
1783080719804338000,3.941337890625,0.9877657294273376,-0.2707101106643677,0.15459638833999634
1783080719824186400,3.961186279296875,1.0676604509353638,0.14407691359519958,0.8729835748672485
1783080719844015600,3.981015625,1.1230541467666626,0.40932756662368774,1.523726463317871
1783080719863676200,4.00067626953125,0.9771130681037903,-0.499741792678833,2.0002987384796143
1783080719883528200,4.020528076171875,0.5809681415557861,-1.656751275062561,1.53650963306427
1783080719903399200,4.040399169921875,0.09001477807760239,-1.5125411748886108,0.028495801612734795
1783080719923439000,4.060439208984375,-0.31252172589302063,-0.311190128326416,-1.156343698501587
1783080719943268000,4.08026806640625,-0.4318312406539917,0.6696513295173645,-0.6611292362213135
1783080719962928000,4.09992822265625,-0.3572627902030945,0.4066644012928009,0.8202530145645142
1783080719982779600,4.119779541015625,-0.1699095517396927,-0.1759016513824463,1.5306507349014282
1783080720022675000,4.159675048828125,-0.058056868612766266,0.08761793375015259,0.19028271734714508
1783080720042372000,4.1793720703125,-0.1464737504720688,0.2948117256164551,-0.5290365815162659
1783080720062222600,4.19922265625,-0.15233269333839417,0.3129211962223053,-0.7016092538833618
1783080720082073300,4.2190732421875,-0.029827382415533066,0.2852243483066559,-0.5093291997909546
1783080720101939500,4.238939453125,0.22690115869045258,0.20160114765167236,-0.1430116444826126
1783080720121925400,4.25892529296875,0.47657233476638794,0.09827057272195816,0.1988048255443573
1783080720141622300,4.278622314453125,0.5506081581115723,0.0540621280670166,0.38096490502357483
1783080720161469200,4.29846923828125,0.47284388542175293,0.10839057713747025,0.3436806797981262
1783080720181282000,4.318281982421875,0.35939332842826843,0.24154852330684662,0.21371851861476898
1783080720201152800,4.33815283203125,0.3009369671344757,0.4162517786026001,0.13915006816387177
1783080720221173000,4.358173095703125,0.23222747445106506,0.4455465078353882,0.1615206003189087
1783080720240851700,4.377851806640625,0.14434322714805603,0.44767704606056213,0.09241162240505219
1783080720260872200,4.3978720703125,0.02450106292963028,0.7325019240379333,-0.029028434306383133
1783080720280551200,4.41755126953125,-0.12836426496505737,1.0849710702896118,-0.06151897460222244
1783080720300591000,4.437591064453125,-0.06764423847198486,0.5854955315589905,-0.4581965208053589
1783080720320439000,4.45743896484375,0.3296990990638733,0.06897582113742828,-0.9279778003692627
1783080720340287700,4.477287841796875,0.8201198577880859,-0.10772478580474854,-0.8118640780448914
1783080720360117200,4.4971171875,0.9014793634414673,0.18828535079956055,0.34794172644615173
1783080720379797200,4.51679736328125,0.8068040609359741,-0.08855003863573074,1.3463600873947144
1783080720399838000,4.536837890625,0.894022524356842,-0.8708530068397522,1.1510173082351685
1783080720419686700,4.556686767578125,0.8030756115913391,-1.2867053747177124,0.1892174482345581
1783080720439535900,4.576535888671875,0.3705785870552063,-0.9225183129310608,-0.8837693333625793
1783080720459385000,4.596385009765625,-0.294412225484848,0.43649178743362427,-1.2538152933120728
1783080720479234600,4.616234619140625,-0.5756418108940125,1.2548805475234985,-0.3837612271308899
1783080720499084000,4.636083984375,-0.3988080620765686,0.6984134912490845,1.0631331205368042
1783080720518933800,4.655933837890625,-0.14327795803546906,-0.5709813237190247,1.7282570600509644
1783080720538783500,4.675783447265625,0.010652636177837849,-1.0853705406188965,1.1147984266281128
1783080720558633200,4.69563330078125,0.15180006623268127,-0.645017147064209,-0.0870852991938591
1783080720578483200,4.715483154296875,-0.06498108059167862,-0.25260064005851746,-1.0993521213531494
1783080720598333200,4.735333251953125,-0.39135122299194336,0.09454214572906494,-1.423724889755249
1783080720618183000,4.755182861328125,-0.5335639119148254,0.3230412006378174,-1.0231857299804688
1783080720638033000,4.775032958984375,-0.4227765202522278,0.16484954953193665,-0.43635863065719604
1783080720657883000,4.7948828125,-0.15446323156356812,-0.06138581782579422,0.08335687965154648
1783080720677732900,4.81473291015625,0.03515370190143585,-0.17110797762870789,0.35220280289649963
1783080720697583000,4.8345830078125,0.014913691207766533,-0.22809958457946777,0.3452785909175873
1783080720717433000,4.85443310546875,0.018109481781721115,-0.058722659945487976,0.24780695140361786
1783080720737283000,4.874282958984375,0.1406148076057434,0.32517173886299133,0.34634384512901306
1783080720757133000,4.894133056640625,0.20399798452854156,0.42743703722953796,0.6791055798530579
1783080720776983000,4.913983154296875,0.09214530140161514,0.3022685647010803,0.8554067015647888
1783080720796833000,4.9338330078125,-0.0942758321762085,0.3981422781944275,0.6913561224937439
1783080720816679400,4.953679443359375,-0.122505322098732,0.6483460664749146,0.604137659072876
1783080720836495600,4.97349560546875,0.017044218257069588,0.13768532872200012,0.25206801295280457
1783080720856384000,4.993384033203125,0.24181485176086426,-0.14767217636108398,-0.826245129108429
1783080720876234000,5.01323388671875,0.5910881757736206,0.545548141002655,-1.6393076181411743
1783080720896083700,5.033083740234375,0.8696545958518982,1.1078741550445557,-1.2932300567626953
1783080720915934000,5.052933837890625,0.8812393546104431,0.7431545257568359,-0.5301018357276917
1783080720935784000,5.072783935546875,0.948883593082428,0.31079065799713135,-0.671249270439148
1783080720955634000,5.092634033203125,0.9808415174484253,0.5759081840515137,-1.623861312866211
1783080720975484000,5.11248388671875,0.9190561771392822,0.9769799113273621,-2.3800652027130127
1783080720995334100,5.132334228515625,0.7535408735275269,1.0759162902832031,-2.1915135383605957
1783080721015184100,5.15218408203125,0.43502703309059143,0.8550072312355042,-1.2916321754455566
1783080721035034000,5.1720341796875,0.2503369450569153,0.36298859119415283,-0.37630438804626465
1783080721054884000,5.191884033203125,0.1502021700143814,-0.001331579522229731,0.07004108279943466
1783080721074734300,5.211734375,0.2071937769651413,-0.3633880615234375,-0.001331579522229731
1783080721094584300,5.231584228515625,0.3652522563934326,-0.45606598258018494,-0.3459443747997284
1783080721114434300,5.251434326171875,-0.03515370190143585,-0.4065312445163727,-0.4257059693336487
1783080721134284300,5.2712841796875,-0.1964079886674881,-0.3388870060443878,-0.17869797348976135
1783080721154134500,5.291134521484375,0.19547587633132935,-0.5029376149177551,-0.2665822207927704
1783080721173984500,5.310984619140625,0.13369058072566986,-0.39854174852371216,-0.499741792678833
1783080721193834500,5.33083447265625,-0.046338967978954315,-0.21371851861476898,-0.5407544374465942
1783080721213669400,5.35066943359375,-0.21877852082252502,-0.09121319651603699,-0.1952095627784729
1783080721233368600,5.37036865234375,-0.10705899447202682,0.1669800728559494,0.023702116683125496
1783080721253236500,5.390236572265625,0.14913691580295563,0.27244117856025696,0.11265163123607635
1783080721273220000,5.41022021484375,0.16777902841567993,0.1771000772714615,0.348474383354187
1783080721292880600,5.429880615234375,-0.0031957910396158695,0.1296958476305008,0.33675646781921387
1783080721312733000,5.44973291015625,-0.2480732649564743,-0.4848281145095825,0.22543641924858093
1783080721332584400,5.46958447265625,-0.06764423847198486,-1.4172000885009766,-0.21758009493350983
1783080721352455400,5.489455322265625,-0.23635536432266235,-0.4773712754249573,-1.0993521213531494
1783080721372476200,5.50947607421875,-0.5202481150627136,0.8507461547851562,-0.2804306447505951
1783080721392135400,5.529135498046875,-0.781104564666748,0.6206492185592651,1.3740569353103638
1783080721411986700,5.548986572265625,-0.5175849795341492,0.5322323441505432,1.0998847484588623
1783080721431857400,5.568857421875,0.013315795920789242,0.8065377473831177,0.5577986836433411
1783080721451896800,5.588896728515625,0.2924148738384247,0.2884201407432556,0.6515418887138367
1783080721471744800,5.608744873046875,0.20612850785255432,0.04394212365150452,0.5141228437423706
1783080721491573800,5.62857373046875,0.19973693788051605,0.24953800439834595,0.5577986836433411
1783080721511237600,5.648237548828125,0.2865559160709381,-0.019307903945446014,1.281378984451294
1783080721531127000,5.668126953125,0.30892646312713623,-0.2978743314743042,1.899631381034851
1783080721550993400,5.687993408203125,0.33609068393707275,-0.2925480306148529,1.9933745861053467
1783080721570979600,5.7079794921875,0.23702116310596466,0.07430213689804077,1.4539517164230347
1783080721590692600,5.727692626953125,0.31265488266944885,0.23036326467990875,0.7430213689804077
1783080721610694400,5.7476943359375,0.4227765202522278,0.25912538170814514,0.22863221168518066
1783080721630523600,5.767523681640625,0.38282912969589233,0.13768532872200012,-0.10732531547546387
1783080721650203400,5.787203369140625,0.32650330662727356,-0.2078595608472824,-0.3033338189125061
1783080721670224600,5.807224609375,0.30839383602142334,-0.27710169553756714,-0.383228600025177
1783080721689884400,5.826884521484375,0.22690115869045258,-0.2222406268119812,-0.3821633458137512
1783080721709736200,5.846736083984375,0.13315795361995697,-0.1418132185935974,-0.3890875577926636
1783080721729607000,5.86660693359375,0.13049480319023132,-0.009187898598611355,-0.35712963342666626
1783080721749646800,5.886646728515625,0.2540653645992279,0.08974846452474594,-0.2788327634334564
1783080721769475600,5.9064755859375,0.3940143883228302,0.228232741355896,-0.2894853949546814
1783080721789135400,5.92613525390625,0.4467449486255646,0.06418213248252869,-0.23036326467990875
1783080721808987000,5.94598681640625,0.585229218006134,-0.344745934009552,0.07962846010923386
1783080721828838100,5.965838134765625,0.5692502856254578,-0.8010782599449158,0.6876276731491089
1783080721848701000,5.985700927734375,0.2620548605918884,-1.2084084749221802,0.4283691346645355
1783080721868653300,6.0056533203125,-0.20333220064640045,-0.9768467545509338,-0.8624640703201294
1783080721888408800,6.025408935546875,-0.1603221744298935,0.6440850496292114,-2.4668843746185303
1783080721908429000,6.045428955078125,-0.06657897680997849,1.512674331665039,-2.2623536586761475
1783080721928088000,6.065088134765625,-0.16138744354248047,0.42424124479293823,-0.6392913460731506
1783080721947939300,6.084939208984375,-0.13369058072566986,-0.10559425503015518,-0.13662005960941315
1783080721967790300,6.104790283203125,0.16564849019050598,0.15206637978553772,-0.4294344186782837
1783080721987640800,6.124640869140625,0.4233091473579407,0.6733797788619995,-0.38003280758857727
1783080722007491600,6.14449169921875,0.35886070132255554,0.9290430545806885,0.32237541675567627
1783080722027361500,6.164361572265625,0.16138744354248047,0.6733797788619995,1.0876342058181763
1783080722047381500,6.184381591796875,0.19867166876792908,0.4215780794620514,1.4864422082901
1783080722067040300,6.204040283203125,0.3556649088859558,0.12756532430648804,1.4054821729660034
1783080722086891000,6.22389111328125,0.2865559160709381,-0.2653838098049164,1.2595411539077759
1783080722106741800,6.24374169921875,0.12836426496505737,-0.4017375409603119,0.8889625072479248
1783080722126592300,6.26359228515625,0.07776424288749695,-0.23821958899497986,0.17856481671333313
1783080722146442800,6.28344287109375,0.10865689069032669,-0.06298371404409409,-0.3795001804828644
1783080722166312400,6.3033125,0.15659375488758087,-0.003994738683104515,-0.5631250143051147
1783080722186332400,6.32333251953125,0.12516847252845764,-0.06351634114980698,-0.39974018931388855
1783080722205995000,6.3429951171875,0.1454084813594818,-0.003994738683104515,-0.10199899226427078
1783080722225883400,6.36288330078125,0.1693769246339798,0.07590003311634064,0.028495801612734795
1783080722245733400,6.3827333984375,0.20399798452854156,0.1430116444826126,0.060453712940216064
1783080722265583400,6.402583251953125,0.20985694229602814,0.2745717167854309,0.14980269968509674
1783080722285433300,6.422433349609375,0.20346535742282867,0.39068543910980225,0.22543641924858093
1783080722305299000,6.442298828125,0.2119874656200409,0.360325425863266,0.2893522381782532
1783080722325300200,6.46230029296875,0.35300174355506897,0.24367906153202057,0.3820301592350006
1783080722345128700,6.482128662109375,0.48988813161849976,0.0727042406797409,0.4677838981151581
1783080722364788200,6.501788330078125,0.4046670198440552,-0.12956269085407257,0.06737792491912842
1783080722404738800,6.54173876953125,-0.08628635853528976,-0.42623862624168396,-1.4928338527679443
1783080722424607200,6.561607177734375,-0.2336922138929367,0.24474431574344635,-1.173387885093689
1783080722444388900,6.581388916015625,-0.15233269333839417,0.4338286221027374,-0.5450155138969421
1783080722464238800,6.60123876953125,-0.04314317926764488,0.1909485012292862,-0.44168493151664734
1783080722484089000,6.621089111328125,0.16777902841567993,-0.23023010790348053,-0.32890015840530396
1783080722503939300,6.640939208984375,0.18961693346500397,-0.30426591634750366,0.1418132185935974
1783080722523789000,6.6607890625,0.08575372397899628,-0.02996053919196129,0.40812912583351135
1783080722543523800,6.68052392578125,0.03568633273243904,0.48016759753227234,0.21158799529075623
1783080722563489300,6.7004892578125,0.0798947736620903,0.6392913460731506,0.32290804386138916
1783080722583146800,6.720146728515625,0.18588849902153015,0.2697780132293701,1.0120004415512085
1783080722603189200,6.740189208984375,0.27963170409202576,-0.018242640420794487,1.591370701789856
1783080722622846700,6.7598466796875,0.2498043179512024,-0.10985531657934189,1.6808528900146484
1783080722642889200,6.77988916015625,0.12996216118335724,-0.2547311782836914,1.2350400686264038
1783080722662739200,6.7997392578125,-0.03195790946483612,-0.302668035030365,0.6615287065505981
1783080722682435600,6.819435546875,-0.1129179447889328,-0.16791218519210815,0.2728406488895416
1783080722702285300,6.839285400390625,-0.00798947736620903,-0.059255290776491165,0.15779218077659607
