time,seconds_elapsed,z,y,x
1783080731138703400,0.167703369140625,32.67818069458008,7.451848030090332,4.659423828125
1783080731158553600,0.1875537109375,30.659833908081055,8.557929992675781,3.421736478805542
1783080731178249500,0.20724951171875,24.611974716186523,9.278767585754395,3.3619158267974854
1783080731198099500,0.227099365234375,17.57528305053711,10.463813781738281,2.6799614429473877
1783080731217949200,0.24694921875,9.500103950500488,9.759725570678711,3.500699520111084
1783080731237953300,0.266953369140625,3.813561201095581,7.528418064117432,3.3643085956573486
1783080731257649400,0.2866494140625,2.8247270584106445,4.459024906158447,1.4033905267715454
1783080731277653200,0.3066533203125,3.875774383544922,2.6709883213043213,-0.8542376756668091
1783080731297349400,0.326349365234375,3.8566319942474365,2.084148406982422,-2.3264217376708984
1783080731317199400,0.346199462890625,2.640479803085327,1.7563318014144897,-2.9515466690063477
1783080731337203200,0.366203125,0.1818545162677765,1.48055899143219,-2.740978240966797
1783080731356899300,0.3858994140625,-1.4321043491363525,1.327418327331543,-1.953141450881958
1783080731376749300,0.405749267578125,-1.0247262716293335,0.8919246196746826,-0.8614161610603333
1783080731396599300,0.425599365234375,1.0654042959213257,0.19740787148475647,-0.028115665540099144
1783080731416603100,0.44560302734375,2.6285157203674316,-1.0043872594833374,0.2231307178735733
1783080731436453400,0.465453369140625,3.538386583328247,-2.0889341831207275,-0.049651071429252625
1783080731456110800,0.48511083984375,3.6293137073516846,-3.1615169048309326,0.0891326442360878
1783080731475960800,0.5049609375,3.5718860626220703,-4.226921081542969,0.08673982322216034
1783080731495964700,0.524964599609375,3.1890344619750977,-4.643272399902344,-0.028115665540099144
1783080731515699200,0.54469921875,2.17627215385437,-3.9948174953460693,-0.05922235921025276
1783080731535703300,0.564703369140625,2.1547367572784424,-2.4670002460479736,0.17288143932819366
1783080731555553500,0.584553466796875,1.7282161712646484,1.4350954294204712,0.6424728631973267
1783080731595061000,0.62406103515625,5.96590518951416,14.47896957397461,-0.511465847492218
1783080731614949000,0.64394921875,12.40140151977539,18.75255012512207,-1.6923238039016724
1783080731634953200,0.663953125,22.414167404174805,18.446269989013672,-0.48035913705825806
1783080731654649000,0.683649169921875,34.27239990234375,15.010176658630371,2.981456995010376
1783080731674499000,0.7034990234375,42.4223518371582,12.235698699951172,5.9336018562316895
1783080731694503200,0.723503173828125,42.013179779052734,10.911271095275879,5.782854080200195
1783080731714353400,0.743353515625,31.44767189025879,10.861021995544434,5.052444934844971
1783080731734203400,0.763203369140625,15.114264488220215,9.807581901550293,4.448855400085449
1783080731753899500,0.7828994140625,2.8175487518310547,6.434299945831299,3.716651678085327
1783080731773749200,0.802749267578125,0.038285162299871445,2.53399920463562,1.9591234922409058
1783080731793599200,0.82259912109375,-0.10588239878416061,0.15672987699508667,-0.5431707501411438
1783080731813449200,0.84244921875,-0.8093722462654114,-0.7292127013206482,-2.7074787616729736
1783080731833260500,0.862260498046875,-0.43130627274513245,-1.3680963516235352,-3.8494534492492676
1783080731853110500,0.882110595703125,-1.6426727771759033,-1.4518451690673828,-4.105485439300537
1783080731872960500,0.90196044921875,-3.2350962162017822,-1.6103696823120117,-3.229114055633545
1783080731892810200,0.921810302734375,-2.145763635635376,-2.1655044555664062,-1.6325032711029053
1783080731912853000,0.94185302734375,0.37806597352027893,-3.077768087387085,-0.7992027401924133
1783080731932510500,0.961510498046875,3.5024940967559814,-3.580260992050171,-1.2370892763137817
1783080731952362800,0.98136279296875,4.730610370635986,-3.494119167327881,-1.8095721006393433
1783080731972409900,1.001409912109375,3.64127779006958,-2.9940192699432373,-2.204387903213501
1783080731992239600,1.021239501953125,0.9284151792526245,-2.187039852142334,-2.072782516479492
1783080732011900000,1.04089990234375,-1.211964726448059,-1.0378868579864502,-1.7258232831954956
1783080732031752000,1.060751953125,-0.9936196208000183,0.6191428303718567,-1.7904295921325684
1783080732051623200,1.080623046875,1.5248262882232666,3.6813576221466064,-1.7736797332763672
1783080732071644000,1.100643798828125,6.209972858428955,9.250054359436035,-1.9363917112350464
1783080732091323000,1.120322998046875,11.300105094909668,16.681562423706055,-2.2163519859313965
1783080732111362800,1.14036279296875,16.981863021850586,22.08036994934082,-1.430907964706421
1783080732131195600,1.160195556640625,29.103900909423828,20.133808135986328,3.31884503364563
1783080732150909000,1.179908935546875,43.785064697265625,13.219746589660645,6.884150981903076
1783080732170895400,1.199895263671875,44.40959167480469,12.484552383422852,1.85383939743042
1783080732190593000,1.219593017578125,30.777082443237305,13.712668418884277,-2.3647069931030273
1783080732210440400,1.2394404296875,15.88295841217041,14.612967491149902,-2.048854351043701
1783080732230253600,1.259253662109375,5.975476264953613,12.008380889892578,1.9519450664520264
1783080732250124300,1.279124267578125,0.6436693072319031,7.4877400398254395,2.981456995010376
1783080732270144800,1.299144775390625,-2.224726915359497,2.5698914527893066,3.8386857509613037
1783080732289804000,1.318803955078125,-1.1282159090042114,-1.2580264806747437,2.1337995529174805
1783080732309655300,1.3386552734375,2.0416758060455322,-3.0346972942352295,-0.9667003750801086
1783080732329506300,1.35850634765625,1.7521443367004395,-2.967698335647583,-3.3655049800872803
1783080732349376500,1.37837646484375,-2.499901533126831,-2.3569302558898926,-5.029713153839111
1783080732369396500,1.398396484375,-7.153941631317139,-1.8233308792114258,-5.793622016906738
1783080732389075000,1.418074951171875,-8.066205024719238,-1.8400806188583374,-4.843072891235352
1783080732409095400,1.438095458984375,-5.385047435760498,-2.5292134284973145,-3.056830883026123
1783080732428774100,1.457774169921875,-2.0614166259765625,-3.0586254596710205,-3.0687949657440186
1783080732448794600,1.477794677734375,0.27756741642951965,-2.8624141216278076,-4.3519463539123535
1783080732468454000,1.497453857421875,1.3262219429016113,-2.8313074111938477,-4.277768611907959
1783080732488305200,1.51730517578125,0.5862415432929993,-2.5052852630615234,-2.5561327934265137
1783080732508156000,1.537156005859375,-0.8333004713058472,-1.3154542446136475,-0.698704183101654
1783080732528026400,1.5570263671875,-2.325225353240967,0.08733802288770676,0.5635097622871399
1783080732548046300,1.57704638671875,-0.0891326442360878,1.540379524230957,2.1409780979156494
1783080732567705300,1.596705322265625,8.048856735229492,5.60099983215332,3.326023578643799
1783080732587556000,1.61655615234375,17.740985870361328,11.823534965515137,4.9399824142456055
1783080732607406800,1.63640673828125,27.0544490814209,18.12264060974121,7.128218650817871
1783080732627277000,1.656277099609375,38.544185638427734,18.795621871948242,13.123435974121094
1783080732647297000,1.676297119140625,45.25724792480469,15.946368217468262,19.51346778869629
1783080732666975200,1.695975341796875,39.60480499267578,15.680765151977539,19.170696258544922
1783080732686995500,1.715995361328125,27.5234432220459,14.866606712341309,14.70808219909668
1783080732706674200,1.735674072265625,15.494723320007324,14.955141067504883,8.152944564819336
1783080732726713900,1.7557138671875,8.575876235961914,13.492528915405273,3.6155550479888916
1783080732746542600,1.77554248046875,4.833501815795898,10.15753173828125,2.9455647468566895
1783080732766202400,1.795202392578125,0.5886343717575073,5.828916072845459,4.111467361450195
1783080732786053600,1.8150537109375,-1.0803594589233398,1.6031911373138428,3.4337005615234375
1783080732805924400,1.83492431640625,-0.617946445941925,-0.41994038224220276,-0.38225340843200684
1783080732825964000,1.854964111328125,0,-0.5760720372200012,-4.4380879402160645
1783080732845792800,1.874792724609375,-1.4775680303573608,0.07537391036748886,-6.976274490356445
1783080732865452300,1.894452392578125,-4.659423828125,0.4989035129547119,-7.802396297454834
1783080732885303800,1.9143037109375,-6.823731899261475,0.31465616822242737,-6.904489517211914
1783080732905174500,1.934174560546875,-6.321238994598389,-0.5234299302101135,-4.893322467803955
1783080732925214200,1.954214111328125,-3.562912940979004,-1.4662020206451416,-3.308077335357666
1783080732945062100,1.974062255859375,-0.8237292170524597,-1.9573289155960083,-3.276970624923706
1783080732964912000,1.993912109375,1.1635099649429321,-2.1750757694244385,-3.1310083866119385
1783080732984518000,2.013517822265625,2.348555326461792,-2.3736801147460938,-1.210768222808838
1783080733004427500,2.033427490234375,2.121237277984619,-1.6941183805465698,-0.004187439568340778
1783080733024466700,2.053466796875,2.434697151184082,-0.7339983582496643,1.2550355195999146
1783080733044294700,2.073294677734375,5.62373161315918,0.2715853750705719,3.2063822746276855
1783080733063973600,2.0929736328125,10.136594772338867,1.698904037475586,4.360321044921875
1783080733083994000,2.112994140625,14.618949890136719,4.897509574890137,5.059623718261719
1783080733103672800,2.1326728515625,19.335203170776367,10.155138969421387,6.3738813400268555
1783080733123693600,2.152693603515625,28.287351608276367,12.960723876953125,11.60279655456543
1783080733143357000,2.17235693359375,43.10251235961914,9.848259925842285,18.979270935058594
1783080733163245800,2.192245849609375,47.213382720947266,6.530013084411621,20.753549575805664
1783080733183096300,2.212096435546875,37.16950988769531,6.52044153213501,16.52543067932129
1783080733202962200,2.231962158203125,22.7563419342041,6.992425918579102,11.088339805603027
1783080733222963500,2.25196337890625,12.911670684814453,7.607381343841553,4.999803066253662
1783080733242792200,2.271792236328125,10.048060417175293,5.955735683441162,2.8187451362609863
1783080733262452000,2.291451904296875,6.437889099121094,3.6574294567108154,1.3148560523986816
1783080733282303500,2.311303466796875,0.09571290761232376,1.734796404838562,0.3810569941997528
1783080733302174200,2.33117431640625,-3.421736478805542,0.5473581552505493,0.3930211067199707
1783080733322194700,2.351194580078125,-4.286143779754639,0.28115665912628174,0.12502498924732208
1783080733341853700,2.370853759765625,-5.789434432983398,0.6215356588363647,-0.8279166221618652
1783080733361704700,2.39070458984375,-7.0031938552856445,1.2532408237457275,-1.6396816968917847
1783080733381575400,2.410575439453125,-4.01754903793335,0.7459624409675598,0.37866419553756714
1783080733401614600,2.430614501953125,-1.1162517070770264,-0.008374879136681557,1.999801516532898
1783080733421443000,2.450443115234375,-1.1617153882980347,-0.08733802288770676,0.8051848411560059
1783080733441102600,2.4701025390625,-0.30209386348724365,-0.15912270545959473,-1.4452649354934692
1783080733460953900,2.489953857421875,1.5822539329528809,-0.6622136831283569,-3.0305099487304688
1783080733480804900,2.509804931640625,2.214557409286499,-1.0211371183395386,-4.191627025604248
1783080733500675300,2.52967529296875,1.4841482639312744,-1.1048858165740967,-4.172484397888184
1783080733520695600,2.549695556640625,0.6269195079803467,-1.0259226560592651,-2.6356940269470215
1783080733540354300,2.569354248046875,0.8111668825149536,-0.28115665912628174,-1.0504491329193115
1783080733560205300,2.589205322265625,3.318246841430664,1.2628121376037598,0.14656038582324982
1783080733580056000,2.60905615234375,7.285546779632568,6.235695838928223,1.4009976387023926
1783080733599926300,2.62892626953125,10.620543479919434,14.852250099182129,2.052443504333496
1783080733619946200,2.6489462890625,20.12543296813965,20.404794692993164,6.314060688018799
1783080733639605000,2.66860498046875,35.100914001464844,16.559528350830078,15.893128395080566
1783080733659455700,2.688455810546875,42.82494354248047,13.171890258789062,18.14836311340332
1783080733679306500,2.708306396484375,36.580875396728516,12.93200969696045,12.584452629089355
1783080733699176400,2.728176513671875,25.110280990600586,12.795619010925293,6.951149940490723
1783080733719215600,2.748215576171875,15.085550308227539,12.276376724243164,3.738187074661255
1783080733739043800,2.7680439453125,6.966702938079834,9.771689414978027,2.7876384258270264
1783080733758703000,2.787703125,1.3525429964065552,6.276373863220215,3.4002010822296143
1783080733798642200,2.82764208984375,-5.137988567352295,0.5473581552505493,2.8761727809906006
1783080733818513400,2.847513427734375,-3.5461630821228027,-0.9589236974716187,-0.6675975322723389
1783080733838302500,2.867302490234375,-1.4033905267715454,-1.5984054803848267,-2.946761131286621
1783080733858152700,2.887152587890625,-1.812563180923462,-1.8472590446472168,-3.513859987258911
1783080733878002700,2.907002685546875,-2.688934564590454,-1.8831514120101929,-2.913261651992798
1783080733897660200,2.92666015625,-2.272583246231079,-1.892722725868225,-1.7234305143356323
1783080733917702400,2.946702392578125,-0.6370890140533447,-2.1104695796966553,-0.8350951075553894
1783080733937552400,2.966552490234375,1.3668999671936035,-1.9142581224441528,-0.9068797826766968
1783080733957210000,2.986210205078125,2.8079774379730225,-1.0019944906234741,-1.5990036725997925
1783080733977059800,3.006059814453125,2.324627161026001,0.2189432680606842,-2.2546372413635254
1783080733996909600,3.02590966796875,0.9930213689804077,1.5188441276550293,-2.3431715965270996
1783080734016759300,3.04575927734375,0.007178467698395252,2.557927370071411,-1.6157535314559937
1783080734036801800,3.0658017578125,0.8997012972831726,3.290729284286499,0.06520441919565201
1783080734056459300,3.085459228515625,3.67238450050354,4.770689964294434,1.5738791227340698
1783080734076501800,3.105501708984375,8.336593627929688,7.983652591705322,3.690330743789673
1783080734096159200,3.1251591796875,12.262618064880371,13.159926414489746,3.328416347503662
1783080734116201700,3.14520166015625,20.190038681030273,17.543577194213867,3.7908291816711426
1783080734136051700,3.1650517578125,35.740394592285156,14.199009895324707,11.810972213745117
1783080734155709400,3.18470947265625,48.53960418701172,7.5427751541137695,16.18804359436035
1783080734175559200,3.20455908203125,48.546783447265625,8.266005516052246,10.097113609313965
1783080734195409200,3.2244091796875,34.68934631347656,9.049057006835938,7.142575740814209
1783080734215451400,3.244451416015625,14.681163787841797,10.17428207397461,6.395416736602783
1783080734235301600,3.264301513671875,-1.290927767753601,11.1104736328125,5.0979084968566895
1783080734254997800,3.283997802734375,-3.139383316040039,8.2157564163208,5.155336380004883
1783080734274847500,3.303847412109375,-1.9920248985290527,4.852046012878418,3.531806230545044
1783080734294697500,3.323697509765625,-2.4329023361206055,2.2061824798583984,-1.1509476900100708
1783080734314624300,3.343624267578125,-0.9457631707191467,0.15672987699508667,-5.362315654754639
1783080734334551600,3.363551513671875,0.2871387302875519,-0.4223332107067108,-6.5904316902160645
1783080734354209300,3.383209228515625,-0.24945175647735596,-1.0163514614105225,-5.419743061065674
1783080734374059000,3.40305908203125,-3.19441819190979,-1.485344648361206,-4.064807415008545
1783080734393908700,3.42290869140625,-5.521438121795654,-2.108076810836792,-1.5146567821502686
1783080734413951200,3.442951171875,-5.270191669464111,-3.2859437465667725,2.090728759765625
1783080734433801500,3.462801513671875,-2.334796667098999,-4.58584451675415,3.9846479892730713
1783080734453459000,3.482458984375,1.618146300315857,-4.229313850402832,1.7533408403396606
1783080734473308700,3.50230859375,4.457828521728516,-2.785843849182129,-0.5479564070701599
1783080734493158700,3.52215869140625,4.874179840087891,-0.9900303483009338,-1.0408778190612793
1783080734513201200,3.542201171875,2.8654050827026367,0.4701896607875824,0.1704886108636856
1783080734532858600,3.561858642578125,1.098903775215149,1.9453648328781128,2.571686029434204
1783080734552708600,3.58170849609375,2.819941520690918,5.258825778961182,3.7118661403656006
1783080734572558300,3.601558349609375,6.729813575744629,10.188638687133789,4.954339504241943
1783080734592408300,3.621408203125,11.501700401306152,16.13360595703125,3.601198196411133
1783080734612450800,3.641450927734375,20.685354232788086,22.197616577148438,-2.1613171100616455
1783080734632108500,3.661108642578125,34.119258880615234,21.40798568725586,1.3435698747634888
1783080734651958300,3.680958251953125,44.85764694213867,16.198213577270508,7.80837869644165
1783080734671808300,3.700808349609375,42.056251525878906,13.973485946655273,6.0987067222595215
1783080734691658000,3.720657958984375,29.515466690063477,11.924033164978027,4.446462631225586
1783080734711700700,3.74070068359375,14.681163787841797,10.683953285217285,3.16331148147583
1783080734731551000,3.760551025390625,4.40757942199707,7.837690353393555,3.5437703132629395
1783080734751208400,3.78020849609375,0.6029912829399109,3.47019100189209,4.0181474685668945
1783080734771058200,3.80005810546875,1.469791293144226,0.10408778488636017,2.1433708667755127
1783080734790908200,3.819908203125,2.819941520690918,-1.1335997581481934,-1.1988041400909424
1783080734810950700,3.83995068359375,1.6253247261047363,-0.966102123260498,-3.2482566833496094
1783080734830608400,3.8596083984375,-2.1577277183532715,-0.50129634141922,-3.52103853225708
1783080734850650600,3.879650634765625,-5.980860233306885,-0.364905446767807,-2.5178475379943848
1783080734870500900,3.8995009765625,-7.134799003601074,-0.07776673883199692,-1.622931957244873
1783080734890350800,3.919350830078125,-5.145166873931885,-0.2835494875907898,-0.6652047038078308
1783080734910201000,3.939201171875,-1.3196417093276978,-0.7770691514015198,-0.2721835672855377
1783080734929858600,3.958858642578125,1.6013965606689453,-1.327418327331543,0.3164508044719696
1783080734949900800,3.97890087890625,2.884547710418701,-1.5499508380889893,0.35473597049713135
1783080734969751000,3.9987509765625,2.379662036895752,-1.1886346340179443,-0.18364913761615753
1783080734989601000,4.01860107421875,1.0217353105545044,-0.6406782865524292,-0.30568310618400574
1783080735009451000,4.038450927734375,-0.18005990982055664,0.0729810893535614,0.03409772366285324
1783080735029301000,4.058301025390625,0.8877372145652771,1.1982059478759766,-0.2147558331489563
1783080735049151000,4.07815087890625,3.3684961795806885,3.448655605316162,-1.0169496536254883
1783080735069001000,4.0980009765625,8.83669376373291,6.128018856048584,-0.5886343717575073
1783080735088851200,4.117851318359375,17.101503372192383,8.989236831665039,-1.1389836072921753
1783080735108701200,4.137701171875,22.607986450195312,10.162318229675293,-0.14057832956314087
1783080735128551200,4.15755126953125,27.542585372924805,7.265207767486572,2.7182464599609375
1783080735148401200,4.177401123046875,39.57130432128906,2.929413080215454,1.4991034269332886
1783080735168251100,4.197251220703125,44.483768463134766,1.6845471858978271,-0.9332008361816406
1783080735188100900,4.217100830078125,34.53860092163086,3.503690481185913,-1.3304094076156616
1783080735207951000,4.236951171875,22.138994216918945,5.175076961517334,-0.10468599200248718
1783080735227801000,4.256801025390625,13.387843132019043,6.065805435180664,-1.2921242713928223
1783080735267500800,4.296500732421875,6.006583213806152,3.9326040744781494,5.468796253204346
1783080735287351000,4.31635107421875,2.80558443069458,3.331407308578491,6.022136211395264
1783080735307200800,4.33620068359375,0.9954141974449158,3.2213375568389893,3.19441819190979
1783080735327050800,4.35605078125,-0.40259242057800293,3.0203404426574707,1.26699960231781
1783080735346900700,4.375900634765625,-2.2055842876434326,3.0131618976593018,0.8506484627723694
1783080735366750700,4.395750732421875,-4.357928276062012,2.5674986839294434,1.5158531665802002
1783080735386600700,4.4156005859375,-5.368297576904297,2.043470621109009,1.8993029594421387
1783080735406450700,4.43545068359375,-4.029513359069824,1.4781662225723267,3.1896326541900635
1783080735426300700,4.45530078125,-0.23270200192928314,2.6422743797302246,6.783652305603027
1783080735446150700,4.475150634765625,2.4873390197753906,1.0354939699172974,0.046061836183071136
1783080735466000600,4.495000732421875,4.934000492095947,-0.19262222945690155,-0.20997019112110138
1783080735485850600,4.5148505859375,2.090130567550659,-0.966102123260498,0.9631111025810242
1783080735505700600,4.53470068359375,1.0217353105545044,-0.21655045449733734,1.2215359210968018
1783080735525550600,4.554550537109375,1.7521443367004395,0.997208833694458,1.4344971179962158
1783080735545400600,4.574400634765625,3.224926710128784,2.4335005283355713,0.3930211067199707
1783080735565250600,4.59425048828125,5.336592674255371,4.1144585609436035,-0.8111668825149536
1783080735585100500,4.6141005859375,10.215558052062988,7.1024956703186035,-2.1445672512054443
1783080735604950500,4.633950439453125,15.75853157043457,10.621739387512207,-1.7545372247695923
1783080735624800500,4.653800537109375,18.588045120239258,11.093724250793457,-1.210768222808838
1783080735644650500,4.673650390625,25.153350830078125,5.769095420837402,2.169692039489746
1783080735664500500,4.69350048828125,40.107295989990234,0.9517452120780945,1.5882359743118286
1783080735684350500,4.7133505859375,37.81138229370117,1.5355939865112305,1.8179470300674438
1783080735704046300,4.73304638671875,25.203601837158203,3.8392839431762695,-0.18843477964401245
1783080735723857700,4.752857666015625,17.788841247558594,6.192625045776367,-2.204387903213501
1783080735743707400,4.772707275390625,15.878172874450684,6.214160442352295,-1.069591760635376
1783080735763749600,4.79274951171875,11.46102237701416,4.9022955894470215,-0.6436693072319031
1783080735783407000,4.812406982421875,5.851049423217773,3.1902308464050293,-0.4205385744571686
1783080735803257000,4.832257080078125,3.2033913135528564,1.5744773149490356,-0.5455635786056519
1783080735823106800,4.85210693359375,2.3844478130340576,0.5306084156036377,-1.057627558708191
1783080735842956800,4.871956787109375,0.11964113265275955,-0.08733802288770676,-1.8598214387893677
1783080735862999300,4.891999267578125,-2.049452543258667,0.14476576447486877,-1.0432707071304321
1783080735882656800,4.91165673828125,-3.232703447341919,0.14476576447486877,-0.7417750358581543
1783080735902699300,4.93169921875,-3.026322364807129,-0.017946170642971992,0.0005982056609354913
1783080735922356700,4.951356689453125,-1.7336000204086304,-0.4223332107067108,0.833898663520813
1783080735942206500,4.97120654296875,-0.20398813486099243,-0.9924231767654419,1.1904292106628418
1783080735962249200,4.991249267578125,0.2847459018230438,-1.1623135805130005,1.3794622421264648
1783080735981906700,5.01090673828125,0.9475577473640442,-1.3489537239074707,1.9567307233810425
1783080736001949000,5.030948974609375,1.8598214387893677,-1.4518451690673828,2.1003000736236572
1783080736021606700,5.050606689453125,1.6564314365386963,-1.3680963516235352,2.3515465259552
1783080736041456400,5.070456298828125,1.3334003686904907,-0.19980068504810333,1.8131613731384277
1783080736061499000,5.090498779296875,1.4195420742034912,2.328216314315796,-0.19561325013637543
1783080736081156600,5.110156494140625,7.170093059539795,7.6289167404174805,-0.32243284583091736
1783080736101006300,5.13000634765625,13.900505065917969,14.146367073059082,-0.7968099117279053
1783080736120856000,5.14985595703125,15.52104377746582,14.83789348602295,-0.6173482537269592
1783080736140706000,5.1697060546875,23.970699310302734,9.16869831085205,2.1026928424835205
1783080736160748800,5.189748779296875,40.902313232421875,4.607379913330078,2.6871397495269775
1783080736180598800,5.209598876953125,40.68935012817383,4.933402061462402,2.1194427013397217
1783080736200256300,5.22925634765625,28.701309204101562,7.88076114654541,0.5587241053581238
1783080736220106200,5.249106201171875,21.157337188720703,9.508479118347168,0.29012975096702576
1783080736240148500,5.2691484375,16.088741302490234,6.4079790115356445,0.7549355626106262
1783080736259998700,5.288998779296875,10.555936813354492,3.463012456893921,0.03409772366285324
1783080736279656200,5.30865625,5.532804012298584,1.947757601737976,-0.5288137793540955
1783080736299544600,5.328544677734375,2.0925233364105225,1.2340983152389526,-0.43489551544189453
1783080736319548700,5.348548583984375,0.2153540402650833,0.6598208546638489,-0.7920243144035339
1783080736339244500,5.36824462890625,-1.1306086778640747,0.7483552694320679,-1.4021940231323242
1783080736359248600,5.38824853515625,-4.173680782318115,0.8153542876243591,-1.1126625537872314
1783080736378944500,5.407944580078125,-5.8995041847229,0.6574280261993408,-0.15972091257572174
1783080736398756000,5.427756103515625,-4.4512481689453125,0.44386860728263855,0.836291491985321
1783080736418605800,5.447605712890625,-2.0781664848327637,0.08733802288770676,1.3674981594085693
1783080736438455600,5.46745556640625,-0.11066804826259613,-0.6454638838768005,1.3818551301956177
1783080736458498300,5.487498291015625,1.4745769500732422,-1.0354939699172974,0.7046862840652466
1783080736478155800,5.50715576171875,2.599801778793335,-1.1072787046432495,0.43130627274513245
1783080736498005500,5.527005615234375,3.3206396102905273,-0.9541380405426025,1.2239288091659546
1783080736517855500,5.54685546875,3.662813186645508,-0.5258227586746216,1.0109676122665405
1783080736537705500,5.56670556640625,4.565505504608154,-0.10408778488636017,0.865005373954773
1783080736557555200,5.58655517578125,6.107081413269043,0.8225327730178833,1.322034478187561
1783080736577405200,5.6064052734375,8.872586250305176,3.551547050476074,2.8737800121307373
1783080736597447700,5.62644775390625,16.581663131713867,8.746963500976562,1.4608181715011597
1783080736617105400,5.64610546875,20.340787887573242,10.990832328796387,-0.7920243144035339
1783080736636955100,5.665955078125,22.019351959228516,6.973283290863037,3.8626139163970947
1783080736656805000,5.68580517578125,33.096923828125,1.7754744291305542,10.762317657470703
1783080736676654800,5.70565478515625,43.85206604003906,1.8951154947280884,7.357929706573486
1783080736696504800,5.7255048828125,34.37828063964844,2.2444677352905273,3.486342668533325
1783080736716354800,5.745354736328125,21.420547485351562,2.9485557079315186,-0.05922235921025276
1783080736736397300,5.765397216796875,18.052051544189453,3.290729284286499,-2.8486554622650146
1783080736756055000,5.785054931640625,14.333605766296387,1.9357935190200806,-1.179661512374878
1783080736775904800,5.80490478515625,8.913264274597168,1.4327025413513184,0.9487541913986206
1783080736795754800,5.824754638671875,4.756931304931641,2.297109842300415,0.9367900490760803
1783080736815604700,5.844604736328125,-0.3595215976238251,3.070589542388916,0.11306086927652359
1783080736835647200,5.864647216796875,-4.788636207580566,2.7690939903259277,-0.7441678643226624
1783080736855304700,5.8843046875,-5.882754325866699,1.7994025945663452,-1.716252088546753
1783080736875347200,5.90434716796875,-5.183452129364014,1.033101201057434,-1.7114664316177368
1783080736895005000,5.9240048828125,-4.400999069213867,0.2021935135126114,-1.0671988725662231
1783080736914854700,5.943854736328125,-2.600399971008301,-0.7962117195129395,-0.3367897868156433
1783080736934897200,5.963897216796875,-0.6897311210632324,-1.7395820617675781,0.6687939167022705
1783080736954554600,5.9835546875,0.760917603969574,-2.4670002460479736,1.164108157157898
1783080736974404600,6.003404541015625,1.9387845993041992,-2.541177749633789,1.4297115802764893
1783080736994254300,6.02325439453125,2.9347970485687256,-2.038684844970703,1.211964726448059
1783080737014297000,6.043297119140625,3.1866414546966553,-1.2652050256729126,0.9272187948226929
1783080737034178600,6.063178466796875,2.389233350753784,0.21176479756832123,0.5946164131164551
1783080737054054100,6.08305419921875,3.2656047344207764,2.359323024749756,-0.3152543902397156
1783080737073922800,6.1029228515625,11.319247245788574,5.586642742156982,-2.2618155479431152
1783080737093701600,6.12270166015625,21.260229110717773,9.329017639160156,-2.2259232997894287
1783080737113550800,6.14255078125,28.555347442626953,10.535597801208496,1.1808580160140991
1783080737133380900,6.162380859375,35.18227005004883,7.360920429229736,6.8243303298950195
1783080737153061400,6.182061279296875,40.825740814208984,3.0370900630950928,7.654639720916748
1783080737173083100,6.202083251953125,37.94777297973633,2.557927370071411,3.982254981994629
1783080737192743400,6.221743408203125,27.116662979125977,4.983651161193848,0.8171489238739014
1783080737212595500,6.241595458984375,17.46999740600586,7.502097129821777,-3.2626137733459473
1783080737232447000,6.261447021484375,12.18365478515625,7.7007012367248535,-1.6612170934677124
1783080737252318000,6.28131787109375,8.693124771118164,4.392025947570801,-0.04247260093688965
1783080737272338400,6.30133837890625,6.937989234924316,1.1407781839370728,0.1417747437953949
1783080737292017200,6.32101708984375,4.778466701507568,0.04187439754605293,0.2470589429140091
1783080737312037600,6.34103759765625,0.6269195079803467,0.22851456701755524,-0.37507495284080505
1783080737331701000,6.360700927734375,-3.1561331748962402,0.5736792087554932,-1.0791629552841187
1783080737351605500,6.38060546875,-4.9704909324646,0.8608179688453674,-1.521835207939148
1783080737371591400,6.40059130859375,-4.77667236328125,0.9493523836135864,-1.5242279767990112
1783080737391288600,6.42028857421875,-4.1760735511779785,0.7986045479774475,-0.8590233325958252
1783080737411139000,6.44013916015625,-2.830111026763916,0.2667997181415558,-0.1740778535604477
1783080737430985700,6.45998583984375,-1.2693923711776733,-0.5904290080070496,0.5946164131164551
1783080737450818000,6.479818115234375,0.3206382393836975,-1.5092729330062866,1.1736794710159302
1783080737470838500,6.499838623046875,1.2759727239608765,-1.923829436302185,1.4081761837005615
1783080737490497500,6.51949755859375,1.551147222518921,-1.6247265338897705,1.2765709161758423
1783080737510348500,6.5393486328125,2.2265214920043945,-0.6741777658462524,1.0564311742782593
1783080737530199600,6.559199462890625,2.504088878631592,0.719641387462616,0.7836494445800781
1783080737550069800,6.57906982421875,3.2751760482788086,1.8352949619293213,0.40259242057800293
1783080737570109000,6.59910888671875,7.179664134979248,3.655036687850952,0.0364905446767807
1783080737589937200,6.618937255859375,14.285749435424805,7.21735143661499,0.08195417374372482
1783080737609596700,6.6385966796875,19.66301918029785,9.867402076721191,0.2757728099822998
1783080737629467400,6.65846728515625,22.871795654296875,9.961320877075195,1.810768485069275
1783080737649506800,6.6785068359375,28.344778060913086,6.932605266571045,4.944767951965332
1783080737669335600,6.69833544921875,31.763525009155273,7.181458950042725,4.5924248695373535
1783080737688999200,6.717999267578125,26.01297378540039,8.94137954711914,4.302893161773682
1783080737708904000,6.737904052734375,21.964317321777344,9.81236743927002,1.6432709693908691
1783080737728905500,6.757905517578125,18.669401168823242,10.39920711517334,-0.4420739710330963
1783080737748753400,6.77775341796875,14.738591194152832,8.756534576416016,1.5643078088760376
1783080737768586800,6.797586669921875,11.516057014465332,5.828916072845459,1.140179991722107
1783080737788296200,6.817296142578125,10.016953468322754,3.297907829284668,0.0005982056609354913
1783080737808245200,6.837245361328125,7.186842918395996,1.6103696823120117,-0.11665010452270508
1783080737827963400,6.85696337890625,2.022533416748047,0.8488538265228271,-0.4827519655227661
1783080737848003600,6.877003662109375,-1.7024933099746704,0.7698906660079956,-0.8231309652328491
1783080737867832800,6.896832763671875,-1.4967105388641357,0.8225327730178833,-0.5575276613235474
1783080737907402000,6.936402099609375,-1.4488540887832642,0.11605189740657806,-0.14297115802764893
1783080737927403800,6.95640380859375,-1.7072789669036865,-0.5258227586746216,0.25423741340637207
1783080737947236900,6.97623681640625,-1.195214867591858,-0.9110672473907471,0.6544370055198669
