time,seconds_elapsed,z,y,x
1783081045126609400,0.142609375,9.827920913696289,0.06819544732570648,-0.04007977992296219
1783081045146458600,0.162458740234375,9.837491989135742,0.0729810893535614,-0.03529413416981697
1783081045166307600,0.1823076171875,9.823135375976562,0.07537391036748886,-0.030508488416671753
1783081045186156500,0.202156494140625,9.842277526855469,0.07537391036748886,-0.03290131315588951
1783081045206005800,0.222005859375,9.818349838256836,0.06580262631177902,-0.025722842663526535
1783081045225854700,0.241854736328125,9.823135375976562,0.07776673883199692,-0.028115665540099144
1783081045245703700,0.26170361328125,9.825528144836426,0.07058826833963394,-0.04247260093688965
1783081045265552600,0.281552734375,9.8207426071167,0.06580262631177902,-0.025722842663526535
1783081045285401600,0.301401611328125,9.842277526855469,0.06580262631177902,-0.028115665540099144
1783081045305250800,0.321250732421875,9.825528144836426,0.08255238085985184,-0.04007977992296219
1783081045325099500,0.341099609375,9.81117057800293,0.0729810893535614,-0.03290131315588951
1783081045344948700,0.36094873046875,9.835099220275879,0.0729810893535614,-0.025722842663526535
1783081045364797700,0.380797607421875,9.830313682556152,0.058624155819416046,-0.030508488416671753
1783081045384646700,0.400646728515625,9.827920913696289,0.08015955984592438,-0.025722842663526535
1783081045404495600,0.42049560546875,9.837491989135742,0.0849452018737793,-0.025722842663526535
1783081045424344600,0.440344482421875,9.847063064575195,0.07537391036748886,-0.03290131315588951
1783081045444193500,0.460193603515625,9.835099220275879,0.07537391036748886,-0.04007977992296219
1783081045464042500,0.48004248046875,9.837491989135742,0.07537391036748886,-0.03529413416981697
1783081045483891500,0.499891357421875,9.830313682556152,0.08255238085985184,-0.03529413416981697
1783081045503701800,0.51970166015625,9.825528144836426,0.07058826833963394,-0.030508488416671753
1783081045523435300,0.539435302734375,9.825528144836426,0.08733802288770676,-0.04007977992296219
1783081045543245800,0.559245849609375,9.825528144836426,0.06819544732570648,-0.04007977992296219
1783081045563286800,0.579286865234375,9.832706451416016,0.07537391036748886,-0.030508488416671753
1783081045583136000,0.599135986328125,9.823135375976562,0.08015955984592438,-0.030508488416671753
1783081045602792400,0.61879248046875,9.8207426071167,0.08255238085985184,-0.04007977992296219
1783081045622641200,0.63864111328125,9.837491989135742,0.07537391036748886,-0.030508488416671753
1783081045642490000,0.658489990234375,9.835099220275879,0.0729810893535614,-0.028115665540099144
1783081045662531300,0.67853125,9.844670295715332,0.07058826833963394,-0.030508488416671753
1783081045682380500,0.698380615234375,9.823135375976562,0.07537391036748886,-0.04007977992296219
1783081045702037000,0.718037109375,9.835099220275879,0.07058826833963394,-0.030508488416671753
1783081045721924400,0.73792431640625,9.827920913696289,0.0729810893535614,-0.03290131315588951
1783081045741773300,0.757773193359375,9.818349838256836,0.0729810893535614,-0.030508488416671753
1783081045761776000,0.777776123046875,9.8207426071167,0.07776673883199692,-0.03529413416981697
1783081045781625300,0.797625244140625,9.827920913696289,0.08015955984592438,-0.03290131315588951
1783081045801320400,0.817320556640625,9.825528144836426,0.06819544732570648,-0.04486542567610741
1783081045821130800,0.837130859375,9.837491989135742,0.07058826833963394,-0.028115665540099144
1783081045840979500,0.8569794921875,9.832706451416016,0.07537391036748886,-0.03768695518374443
1783081045861021000,0.87702099609375,9.825528144836426,0.08015955984592438,-0.04007977992296219
1783081045880870100,0.8968701171875,9.844670295715332,0.07537391036748886,-0.030508488416671753
1783081045900526600,0.916526611328125,9.835099220275879,0.07776673883199692,-0.03529413416981697
1783081045920375600,0.93637548828125,9.835099220275879,0.07058826833963394,-0.030508488416671753
1783081045940224300,0.956224365234375,9.837491989135742,0.08733802288770676,-0.03290131315588951
1783081045960265700,0.976265625,9.830313682556152,0.09212367236614227,-0.030508488416671753
1783081045980115000,0.996114990234375,9.823135375976562,0.07776673883199692,-0.03290131315588951
1783081045999964000,1.0159638671875,9.8207426071167,0.07537391036748886,-0.030508488416671753
1783081046019831300,1.035831298828125,9.832706451416016,0.08015955984592438,-0.03290131315588951
1783081046039700700,1.05570068359375,9.832706451416016,0.07776673883199692,-0.04247260093688965
1783081046059566300,1.07556640625,9.837491989135742,0.07537391036748886,-0.028115665540099144
1783081046079428600,1.0954287109375,9.830313682556152,0.06819544732570648,-0.052043892443180084
1783081046099212800,1.115212890625,9.823135375976562,0.06340979784727097,-0.03768695518374443
1783081046119061500,1.1350615234375,9.842277526855469,0.07058826833963394,-0.025722842663526535
1783081046138910500,1.154910400390625,9.842277526855469,0.08015955984592438,-0.030508488416671753
1783081046158759400,1.174759521484375,9.825528144836426,0.0849452018737793,-0.03529413416981697
1783081046178608000,1.194608154296875,9.818349838256836,0.07537391036748886,-0.03290131315588951
1783081046198457000,1.21445703125,9.839884757995605,0.08015955984592438,-0.023330021649599075
1783081046218306000,1.23430615234375,9.825528144836426,0.0729810893535614,-0.028115665540099144
1783081046238155000,1.254155029296875,9.839884757995605,0.06580262631177902,-0.020937198773026466
1783081046258004000,1.27400390625,9.825528144836426,0.08733802288770676,-0.04247260093688965
1783081046277853000,1.29385302734375,9.823135375976562,0.061016976833343506,-0.03529413416981697
1783081046297702000,1.313701904296875,9.835099220275879,0.06580262631177902,-0.025722842663526535
1783081046317550600,1.333550537109375,9.839884757995605,0.07537391036748886,-0.03768695518374443
1783081046337399600,1.353399658203125,9.842277526855469,0.05623133108019829,-0.03529413416981697
1783081046357244700,1.37324462890625,9.835099220275879,0.0729810893535614,-0.03529413416981697
1783081046377059800,1.393059814453125,9.8207426071167,0.06340979784727097,-0.028115665540099144
1783081046396947200,1.412947265625,9.818349838256836,0.08015955984592438,-0.028115665540099144
1783081046416796000,1.4327958984375,9.832706451416016,0.05383851006627083,-0.03529413416981697
1783081046436644900,1.452644775390625,9.830313682556152,0.0729810893535614,-0.03529413416981697
1783081046456489700,1.47248974609375,9.837491989135742,0.07058826833963394,-0.03290131315588951
1783081046476305000,1.492304931640625,9.837491989135742,0.07776673883199692,-0.04247260093688965
1783081046496192000,1.51219189453125,9.837491989135742,0.08015955984592438,-0.03290131315588951
1783081046516041000,1.532041015625,9.832706451416016,0.07537391036748886,-0.03529413416981697
1783081046535889700,1.5518896484375,9.844670295715332,0.06819544732570648,-0.030508488416671753
1783081046555738600,1.571738525390625,9.835099220275879,0.06819544732570648,-0.03768695518374443
1783081046575587600,1.591587646484375,9.8207426071167,0.06340979784727097,-0.03290131315588951
1783081046595436300,1.611436279296875,9.823135375976562,0.06340979784727097,-0.03290131315588951
1783081046615285200,1.63128515625,9.832706451416016,0.07537391036748886,-0.03529413416981697
1783081046635134200,1.65113427734375,9.830313682556152,0.06819544732570648,-0.03529413416981697
1783081046654983200,1.670983154296875,9.818349838256836,0.0729810893535614,-0.023330021649599075
1783081046674832100,1.69083203125,9.849455833435059,0.07537391036748886,-0.03529413416981697
1783081046694681000,1.71068115234375,9.823135375976562,0.07058826833963394,-0.04007977992296219
1783081046714530000,1.730530029296875,9.837491989135742,0.06819544732570648,-0.04247260093688965
1783081046734375200,1.750375244140625,9.827920913696289,0.07058826833963394,-0.025722842663526535
1783081046754190000,1.770190185546875,9.825528144836426,0.08255238085985184,-0.03290131315588951
1783081046774077400,1.790077392578125,9.823135375976562,0.07776673883199692,-0.03529413416981697
1783081046793907000,1.809906982421875,9.827920913696289,0.07537391036748886,-0.04486542567610741
1783081046813567500,1.8295673828125,9.839884757995605,0.08015955984592438,-0.03529413416981697
1783081046833419000,1.8494189453125,9.825528144836426,0.0849452018737793,-0.028115665540099144
1783081046853289700,1.869289794921875,9.823135375976562,0.06580262631177902,-0.028115665540099144
1783081046873329000,1.889328857421875,9.839884757995605,0.06819544732570648,-0.03529413416981697
1783081046893157400,1.909157470703125,9.825528144836426,0.06819544732570648,-0.030508488416671753
1783081046912816400,1.92881640625,9.823135375976562,0.08015955984592438,-0.04247260093688965
1783081046932667100,1.948667236328125,9.839884757995605,0.07776673883199692,-0.028115665540099144
1783081046952537300,1.968537353515625,9.825528144836426,0.0849452018737793,-0.04247260093688965
1783081046972576000,1.988575927734375,9.837491989135742,0.05383851006627083,-0.03529413416981697
1783081046992404000,2.008404052734375,9.825528144836426,0.08255238085985184,-0.03290131315588951
1783081047012062500,2.0280625,9.815957069396973,0.06580262631177902,-0.030508488416671753
1783081047031913200,2.047913330078125,9.844670295715332,0.07058826833963394,-0.03529413416981697
1783081047051783000,2.067782958984375,9.830313682556152,0.06819544732570648,-0.03529413416981697
1783081047071821600,2.087821533203125,9.830313682556152,0.08255238085985184,-0.028115665540099144
1783081047091649300,2.107649169921875,9.842277526855469,0.07058826833963394,-0.020937198773026466
1783081047111327500,2.127327392578125,9.827920913696289,0.06819544732570648,-0.04007977992296219
1783081047131347500,2.147347412109375,9.825528144836426,0.06819544732570648,-0.030508488416671753
1783081047151025700,2.167025634765625,9.832706451416016,0.06580262631177902,-0.04486542567610741
1783081047171064600,2.187064697265625,9.835099220275879,0.058624155819416046,-0.04007977992296219
1783081047190896400,2.206896484375,9.844670295715332,0.08255238085985184,-0.03768695518374443
1783081047210593000,2.226593017578125,9.827920913696289,0.07058826833963394,-0.020937198773026466
1783081047230443000,2.246443115234375,9.825528144836426,0.08255238085985184,-0.03768695518374443
1783081047250308600,2.26630859375,9.844670295715332,0.07058826833963394,-0.028115665540099144
1783081047270309400,2.286309326171875,9.818349838256836,0.06580262631177902,-0.04007977992296219
1783081047290137300,2.306137451171875,9.835099220275879,0.06580262631177902,-0.04247260093688965
1783081047309796400,2.32579638671875,9.832706451416016,0.07537391036748886,-0.03529413416981697
1783081047329666600,2.34566650390625,9.825528144836426,0.06819544732570648,-0.04247260093688965
1783081047349705500,2.36570556640625,9.830313682556152,0.06819544732570648,-0.03768695518374443
1783081047369552600,2.385552734375,9.835099220275879,0.0729810893535614,-0.03290131315588951
1783081047389400300,2.405400390625,9.837491989135742,0.08255238085985184,-0.03290131315588951
1783081047409228800,2.425228759765625,9.830313682556152,0.08015955984592438,-0.04007977992296219
1783081047428907800,2.44490771484375,9.835099220275879,0.06819544732570648,-0.04247260093688965
1783081047448943600,2.464943603515625,9.835099220275879,0.0729810893535614,-0.03529413416981697
1783081047468753700,2.484753662109375,9.835099220275879,0.07776673883199692,-0.03290131315588951
1783081047488586800,2.504586669921875,9.81356430053711,0.061016976833343506,-0.030508488416671753
1783081047508284700,2.52428466796875,9.837491989135742,0.07058826833963394,-0.025722842663526535
1783081047528155100,2.544155029296875,9.837491989135742,0.07058826833963394,-0.03290131315588951
1783081047548175000,2.564175048828125,9.827920913696289,0.07537391036748886,-0.030508488416671753
1783081047567833600,2.58383349609375,9.832706451416016,0.06340979784727097,-0.04247260093688965
1783081047587684000,2.60368408203125,9.815957069396973,0.08733802288770676,-0.03529413416981697
1783081047607554000,2.623553955078125,9.815957069396973,0.07058826833963394,-0.03529413416981697
1783081047627592700,2.6435927734375,9.842277526855469,0.08015955984592438,-0.03529413416981697
1783081047647420400,2.66342041015625,9.830313682556152,0.061016976833343506,-0.03290131315588951
1783081047667098400,2.683098388671875,9.825528144836426,0.07537391036748886,-0.03768695518374443
1783081047687118300,2.703118408203125,9.830313682556152,0.06819544732570648,-0.03290131315588951
1783081047706796500,2.722796630859375,9.8207426071167,0.08973085135221481,-0.03529413416981697
1783081047726835500,2.74283544921875,9.832706451416016,0.07537391036748886,-0.030508488416671753
1783081047746663400,2.762663330078125,9.827920913696289,0.08015955984592438,-0.03290131315588951
1783081047766322400,2.782322509765625,9.827920913696289,0.07058826833963394,-0.030508488416671753
1783081047786173200,2.802173095703125,9.842277526855469,0.08255238085985184,-0.030508488416671753
1783081047806043100,2.822043212890625,9.837491989135742,0.06580262631177902,-0.025722842663526535
1783081047826081800,2.842081787109375,9.844670295715332,0.0729810893535614,-0.04007977992296219
1783081047845909500,2.861909423828125,9.827920913696289,0.0729810893535614,-0.049651071429252625
1783081047865568000,2.881568115234375,9.827920913696289,0.07058826833963394,-0.023330021649599075
1783081047885418500,2.90141845703125,9.830313682556152,0.08255238085985184,-0.028115665540099144
1783081047905288400,2.921288330078125,9.830313682556152,0.07776673883199692,-0.03529413416981697
1783081047925327000,2.9413271484375,9.835099220275879,0.06580262631177902,-0.030508488416671753
1783081047945173800,2.961173828125,9.823135375976562,0.07537391036748886,-0.03529413416981697
1783081047965002000,2.981001953125,9.837491989135742,0.07776673883199692,-0.03290131315588951
1783081047984661000,3.000660888671875,9.830313682556152,0.0849452018737793,-0.03529413416981697
1783081048004531200,3.02053125,9.837491989135742,0.0849452018737793,-0.025722842663526535
1783081048024570000,3.040570068359375,9.823135375976562,0.0729810893535614,-0.03768695518374443
1783081048044398000,3.060398193359375,9.835099220275879,0.07537391036748886,-0.03768695518374443
1783081048064056800,3.080056884765625,9.825528144836426,0.06819544732570648,-0.023330021649599075
1783081048083907600,3.099907470703125,9.832706451416016,0.0729810893535614,-0.03768695518374443
1783081048103773400,3.1197734375,9.81356430053711,0.07058826833963394,-0.04007977992296219
1783081048123759000,3.139759033203125,9.81356430053711,0.07537391036748886,-0.04007977992296219
1783081048143455700,3.159455810546875,9.842277526855469,0.06819544732570648,-0.03768695518374443
1783081048163305700,3.1793056640625,9.823135375976562,0.07776673883199692,-0.03529413416981697
1783081048183155500,3.199155517578125,9.835099220275879,0.07537391036748886,-0.03529413416981697
1783081048203024600,3.219024658203125,9.832706451416016,0.0729810893535614,-0.03290131315588951
1783081048223047700,3.239047607421875,9.823135375976562,0.07537391036748886,-0.03290131315588951
1783081048242743000,3.258742919921875,9.827920913696289,0.06580262631177902,-0.03290131315588951
1783081048262592300,3.27859228515625,9.818349838256836,0.07058826833963394,-0.028115665540099144
1783081048282441500,3.29844140625,9.837491989135742,0.07537391036748886,-0.03290131315588951
1783081048302306600,3.318306640625,9.825528144836426,0.0729810893535614,-0.03768695518374443
1783081048322287400,3.338287353515625,9.827920913696289,0.06580262631177902,-0.030508488416671753
1783081048341945300,3.3579453125,9.835099220275879,0.06819544732570648,-0.03529413416981697
1783081048361795300,3.37779541015625,9.827920913696289,0.05623133108019829,-0.03290131315588951
1783081048381645300,3.397645263671875,9.823135375976562,0.06819544732570648,-0.04486542567610741
1783081048401514500,3.417514404296875,9.825528144836426,0.07537391036748886,-0.03768695518374443
1783081048421533400,3.437533447265625,9.823135375976562,0.07058826833963394,-0.03290131315588951
1783081048441211000,3.4572109375,9.832706451416016,0.08733802288770676,-0.028115665540099144
1783081048461230000,3.47722998046875,9.818349838256836,0.06580262631177902,-0.04486542567610741
1783081048480907800,3.49690771484375,9.830313682556152,0.07537391036748886,-0.04247260093688965
1783081048500946400,3.516946533203125,9.832706451416016,0.06580262631177902,-0.03290131315588951
1783081048520793300,3.53679345703125,9.839884757995605,0.08255238085985184,-0.03290131315588951
1783081048540640500,3.556640625,9.837491989135742,0.08015955984592438,-0.020937198773026466
1783081048560469000,3.576468994140625,9.847063064575195,0.07776673883199692,-0.025722842663526535
1783081048580148000,3.59614794921875,9.825528144836426,0.0729810893535614,-0.03290131315588951
1783081048600187400,3.6161875,9.835099220275879,0.07058826833963394,-0.03290131315588951
1783081048620035000,3.63603515625,9.837491989135742,0.07776673883199692,-0.03529413416981697
1783081048639883000,3.655883056640625,9.825528144836426,0.0849452018737793,-0.03768695518374443
1783081048659731200,3.675731201171875,9.823135375976562,0.0849452018737793,-0.028115665540099144
1783081048679579400,3.695579345703125,9.832706451416016,0.08255238085985184,-0.030508488416671753
1783081048699427800,3.715427734375,9.837491989135742,0.07058826833963394,-0.030508488416671753
1783081048719276300,3.7352763671875,9.835099220275879,0.06580262631177902,-0.03290131315588951
1783081048739125000,3.755125,9.844670295715332,0.061016976833343506,-0.030508488416671753
1783081048758973700,3.7749736328125,9.827920913696289,0.06580262631177902,-0.030508488416671753
1783081048778822400,3.794822509765625,9.830313682556152,0.07058826833963394,-0.03290131315588951
1783081048798671000,3.814671142578125,9.835099220275879,0.08015955984592438,-0.028115665540099144
1783081048818520000,3.83452001953125,9.835099220275879,0.0729810893535614,-0.018544375896453857
1783081048838369000,3.854369140625,9.815957069396973,0.07776673883199692,-0.052043892443180084
1783081048858210000,3.8742099609375,9.823135375976562,0.0729810893535614,-0.03529413416981697
1783081048877991200,3.8939912109375,9.835099220275879,0.06819544732570648,-0.03290131315588951
1783081048897916700,3.913916748046875,9.830313682556152,0.07776673883199692,-0.03290131315588951
1783081048917765400,3.933765380859375,9.837491989135742,0.0849452018737793,-0.03529413416981697
1783081048937610200,3.9536103515625,9.823135375976562,0.07058826833963394,-0.03768695518374443
1783081048957425200,3.973425048828125,9.830313682556152,0.08973085135221481,-0.04486542567610741
1783081048977312300,3.993312255859375,9.835099220275879,0.06819544732570648,-0.03529413416981697
1783081048997161000,4.013160888671875,9.825528144836426,0.07058826833963394,-0.03290131315588951
1783081049017009700,4.033009765625,9.851848602294922,0.07058826833963394,-0.03290131315588951
1783081049036858600,4.052858642578125,9.844670295715332,0.07537391036748886,-0.025722842663526535
1783081049056707300,4.072707275390625,9.832706451416016,0.058624155819416046,-0.03529413416981697
1783081049076556300,4.092556396484375,9.835099220275879,0.06819544732570648,-0.028115665540099144
1783081049096405200,4.1124052734375,9.837491989135742,0.08015955984592438,-0.03290131315588951
1783081049116254200,4.132254150390625,9.823135375976562,0.07058826833963394,-0.03768695518374443
1783081049136103200,4.152103271484375,9.823135375976562,0.0849452018737793,-0.03290131315588951
1783081049155951900,4.171951904296875,9.830313682556152,0.06580262631177902,-0.03768695518374443
1783081049175800800,4.19180078125,9.825528144836426,0.07776673883199692,-0.03290131315588951
1783081049195649800,4.21164990234375,9.835099220275879,0.06580262631177902,-0.03529413416981697
1783081049215498800,4.231498779296875,9.837491989135742,0.08255238085985184,-0.03290131315588951
1783081049235347700,4.25134765625,9.830313682556152,0.0729810893535614,-0.03290131315588951
1783081049255196700,4.27119677734375,9.837491989135742,0.0729810893535614,-0.018544375896453857
1783081049275045600,4.291045654296875,9.827920913696289,0.07058826833963394,-0.03768695518374443
1783081049294894600,4.31089453125,9.823135375976562,0.07537391036748886,-0.03768695518374443
1783081049314743600,4.33074365234375,9.815957069396973,0.06580262631177902,-0.03529413416981697
1783081049334592300,4.35059228515625,9.835099220275879,0.07776673883199692,-0.03290131315588951
1783081049354441200,4.370441162109375,9.823135375976562,0.07776673883199692,-0.03529413416981697
1783081049374290200,4.390290283203125,9.81356430053711,0.07537391036748886,-0.04247260093688965
1783081049394120000,4.410119873046875,9.832706451416016,0.0729810893535614,-0.03529413416981697
1783081049413780500,4.429780517578125,9.837491989135742,0.0729810893535614,-0.03529413416981697
1783081049433632300,4.44963232421875,9.823135375976562,0.07776673883199692,-0.03529413416981697
1783081049453503000,4.4695029296875,9.839884757995605,0.06819544732570648,-0.030508488416671753
1783081049473542100,4.489542236328125,9.837491989135742,0.06340979784727097,-0.03290131315588951
1783081049493389800,4.509389892578125,9.839884757995605,0.0729810893535614,-0.03290131315588951
1783081049513218300,4.52921826171875,9.818349838256836,0.06340979784727097,-0.03290131315588951
1783081049532877800,4.5488779296875,9.818349838256836,0.07058826833963394,-0.03529413416981697
1783081049552748300,4.568748291015625,9.832706451416016,0.0729810893535614,-0.04247260093688965
1783081049572787500,4.588787353515625,9.835099220275879,0.06819544732570648,-0.023330021649599075
1783081049592615700,4.60861572265625,9.832706451416016,0.08255238085985184,-0.028115665540099144
1783081049612275000,4.62827490234375,9.839884757995605,0.07776673883199692,-0.028115665540099144
1783081049632125700,4.648125732421875,9.837491989135742,0.08255238085985184,-0.03529413416981697
1783081049651995600,4.66799560546875,9.830313682556152,0.07537391036748886,-0.03768695518374443
1783081049672034300,4.688034423828125,9.825528144836426,0.061016976833343506,-0.03529413416981697
1783081049691862300,4.7078623046875,9.835099220275879,0.0849452018737793,-0.030508488416671753
1783081049711520800,4.727520751953125,9.837491989135742,0.0729810893535614,-0.03768695518374443
1783081049731371300,4.747371337890625,9.827920913696289,0.06580262631177902,-0.03290131315588951
1783081049751241200,4.7672412109375,9.815957069396973,0.06580262631177902,-0.03529413416981697
1783081049771280000,4.78727978515625,9.8207426071167,0.07058826833963394,-0.04007977992296219
1783081049791107300,4.807107421875,9.830313682556152,0.07776673883199692,-0.030508488416671753
1783081049810766000,4.82676611328125,9.823135375976562,0.06340979784727097,-0.03290131315588951
1783081049830616600,4.846616455078125,9.839884757995605,0.07537391036748886,-0.03768695518374443
1783081049850486300,4.866486328125,9.847063064575195,0.07776673883199692,-0.03290131315588951
1783081049870524700,4.886524658203125,9.823135375976562,0.08255238085985184,-0.03290131315588951
1783081049890352400,4.906352294921875,9.830313682556152,0.08015955984592438,-0.030508488416671753
1783081049910030600,4.926030517578125,9.830313682556152,0.06580262631177902,-0.04247260093688965
1783081049930050300,4.94605029296875,9.830313682556152,0.07537391036748886,-0.03768695518374443
1783081049949728500,4.965728515625,9.818349838256836,0.07058826833963394,-0.020937198773026466
1783081049969767400,4.985767333984375,9.825528144836426,0.08255238085985184,-0.028115665540099144
1783081049989595600,5.005595703125,9.835099220275879,0.09212367236614227,-0.03290131315588951
1783081050009254400,5.02525439453125,9.818349838256836,0.07776673883199692,-0.03290131315588951
1783081050029124600,5.04512451171875,9.830313682556152,0.08255238085985184,-0.025722842663526535
1783081050049163500,5.06516357421875,9.827920913696289,0.08015955984592438,-0.03768695518374443
1783081050069010700,5.0850107421875,9.837491989135742,0.07537391036748886,-0.03290131315588951
1783081050088839200,5.104839111328125,9.827920913696289,0.06580262631177902,-0.030508488416671753
1783081050108498400,5.12449853515625,9.839884757995605,0.0729810893535614,-0.025722842663526535
1783081050128369000,5.144368896484375,9.8207426071167,0.06340979784727097,-0.052043892443180084
1783081050148388600,5.164388671875,9.839884757995605,0.06580262631177902,-0.03290131315588951
1783081050168051200,5.18405126953125,9.827920913696289,0.07058826833963394,-0.04007977992296219
1783081050187955000,5.203954833984375,9.835099220275879,0.06819544732570648,-0.03290131315588951
1783081050207955500,5.22395556640625,9.830313682556152,0.07058826833963394,-0.025722842663526535
1783081050227802600,5.243802734375,9.830313682556152,0.07537391036748886,-0.03290131315588951
1783081050247630800,5.263630859375,9.830313682556152,0.0729810893535614,-0.047258246690034866
1783081050267290000,5.2832900390625,9.823135375976562,0.06580262631177902,-0.04007977992296219
1783081050287144700,5.303144775390625,9.825528144836426,0.08255238085985184,-0.04247260093688965
1783081050307048400,5.32304833984375,9.827920913696289,0.07058826833963394,-0.03290131315588951
1783081050327049000,5.343049072265625,9.835099220275879,0.08015955984592438,-0.03290131315588951
1783081050346880800,5.362880859375,9.847063064575195,0.0849452018737793,-0.030508488416671753
1783081050366577400,5.382577392578125,9.832706451416016,0.06580262631177902,-0.028115665540099144
1783081050386423600,5.402423583984375,9.832706451416016,0.07058826833963394,-0.03768695518374443
1783081050406255400,5.42225537109375,9.832706451416016,0.06340979784727097,-0.025722842663526535
1783081050426294000,5.4422939453125,9.835099220275879,0.06580262631177902,-0.049651071429252625
1783081050446122000,5.4621220703125,9.830313682556152,0.08015955984592438,-0.04007977992296219
1783081050465800400,5.481800537109375,9.837491989135742,0.08255238085985184,-0.04007977992296219
1783081050485820400,5.5018203125,9.832706451416016,0.06819544732570648,-0.04007977992296219
1783081050505498600,5.52149853515625,9.832706451416016,0.08255238085985184,-0.03290131315588951
1783081050525537800,5.541537841796875,9.827920913696289,0.06340979784727097,-0.030508488416671753
1783081050545366000,5.561365966796875,9.827920913696289,0.0729810893535614,-0.028115665540099144
1783081050565025000,5.58102490234375,9.839884757995605,0.07058826833963394,-0.030508488416671753
1783081050584875500,5.60087548828125,9.830313682556152,0.08015955984592438,-0.025722842663526535
1783081050604745500,5.620745361328125,9.8207426071167,0.07776673883199692,-0.030508488416671753
1783081050624784100,5.6407841796875,9.837491989135742,0.07537391036748886,-0.023330021649599075
1783081050644612000,5.660612060546875,9.825528144836426,0.0729810893535614,-0.030508488416671753
1783081050664270600,5.6802705078125,9.832706451416016,0.058624155819416046,-0.03768695518374443
1783081050684121300,5.700121337890625,9.837491989135742,0.0729810893535614,-0.03768695518374443
1783081050703991000,5.719990966796875,9.832706451416016,0.06340979784727097,-0.04007977992296219
1783081050724029700,5.74002978515625,9.835099220275879,0.06580262631177902,-0.04247260093688965
1783081050743857200,5.759857177734375,9.830313682556152,0.06580262631177902,-0.023330021649599075
1783081050763516000,5.779515869140625,9.832706451416016,0.06580262631177902,-0.03768695518374443
1783081050783366400,5.799366455078125,9.832706451416016,0.058624155819416046,-0.03529413416981697
1783081050803235800,5.81923583984375,9.847063064575195,0.06819544732570648,-0.028115665540099144
1783081050823274500,5.8392744140625,9.8207426071167,0.06580262631177902,-0.03290131315588951
1783081050843102200,5.859102294921875,9.827920913696289,0.07058826833963394,-0.04007977992296219
1783081050862760700,5.8787607421875,9.818349838256836,0.06580262631177902,-0.03290131315588951
1783081050882611200,5.898611083984375,9.825528144836426,0.07776673883199692,-0.04247260093688965
1783081050902481000,5.91848095703125,9.8207426071167,0.06580262631177902,-0.03768695518374443
1783081050922500000,5.9385,9.832706451416016,0.07776673883199692,-0.025722842663526535
1783081050942158300,5.958158447265625,9.825528144836426,0.07776673883199692,-0.030508488416671753
1783081050962008300,5.97800830078125,9.818349838256836,0.06580262631177902,-0.03768695518374443
1783081050981858000,5.997858154296875,9.835099220275879,0.06819544732570648,-0.03290131315588951
1783081051001727500,6.0177275390625,9.832706451416016,0.07537391036748886,-0.03768695518374443
1783081051021746400,6.037746337890625,9.835099220275879,0.08015955984592438,-0.03529413416981697
1783081051041424000,6.057423828125,9.832706451416016,0.06819544732570648,-0.04247260093688965
1783081051061443000,6.077443115234375,9.823135375976562,0.07537391036748886,-0.03768695518374443
1783081051081101000,6.09710107421875,9.818349838256836,0.08015955984592438,-0.03529413416981697
1783081051100970800,6.116970703125,9.825528144836426,0.07537391036748886,-0.04007977992296219
1783081051120990000,6.136989990234375,9.8207426071167,0.07058826833963394,-0.03529413416981697
1783081051140667600,6.156667724609375,9.835099220275879,0.08255238085985184,-0.03290131315588951
1783081051160706300,6.176706298828125,9.835099220275879,0.07058826833963394,-0.04007977992296219
1783081051180534000,6.196533935546875,9.835099220275879,0.07776673883199692,-0.03768695518374443
1783081051200212200,6.216212158203125,9.837491989135742,0.07058826833963394,-0.04247260093688965
1783081051220251400,6.23625146484375,9.825528144836426,0.07058826833963394,-0.03768695518374443
1783081051240098600,6.2560986328125,9.827920913696289,0.0729810893535614,-0.023330021649599075
1783081051259946200,6.2759462890625,9.837491989135742,0.0729810893535614,-0.04486542567610741
1783081051279794200,6.295794189453125,9.823135375976562,0.08015955984592438,-0.04247260093688965
1783081051299642000,6.31564208984375,9.830313682556152,0.07537391036748886,-0.028115665540099144
1783081051319490600,6.335490478515625,9.830313682556152,0.08015955984592438,-0.03529413416981697
1783081051339339000,6.355339111328125,9.844670295715332,0.0729810893535614,-0.03290131315588951
1783081051359187200,6.375187255859375,9.825528144836426,0.061016976833343506,-0.03290131315588951
1783081051379036000,6.395035888671875,9.8207426071167,0.058624155819416046,-0.03768695518374443
1783081051398884600,6.414884521484375,9.81117057800293,0.07776673883199692,-0.03768695518374443
1783081051418733300,6.4347333984375,9.825528144836426,0.07537391036748886,-0.04247260093688965
1783081051438582000,6.45458203125,9.832706451416016,0.0729810893535614,-0.03529413416981697
1783081051458431000,6.474430908203125,9.830313682556152,0.05383851006627083,-0.04247260093688965
1783081051478279700,6.49427978515625,9.827920913696289,0.07776673883199692,-0.03290131315588951
1783081051498128600,6.514128662109375,9.815957069396973,0.07058826833963394,-0.03768695518374443
1783081051517977600,6.5339775390625,9.835099220275879,0.07776673883199692,-0.03290131315588951
1783081051537826600,6.55382666015625,9.92841911315918,0.09930214285850525,-0.08315058797597885
1783081051577524200,6.593524169921875,9.842277526855469,0.05623133108019829,-0.01615155301988125
